"view_history","rt","trial_purpose","trial_type","trial_index","time_elapsed","internal_node_id","sub_id","bonus","stimulus","response","rep","display_left","from_id","from_face","from_name","to_id","to_face","to_name","friendship","correct","slider_start"
"[{""page_index"":0,""viewing_time"":70533}]","70533","confirm_correct","instructions","0","70531","0.0-0.0","30","4","","","","","","","","","","","","",""
"[{""page_index"":0,""viewing_time"":14311},{""page_index"":1,""viewing_time"":16952},{""page_index"":2,""viewing_time"":6566}]","37830","instructions","instructions","1","108363","0.0-1.0","30","4","","","","","","","","","","","","",""
"[{""page_index"":0,""viewing_time"":11398},{""page_index"":1,""viewing_time"":10417},{""page_index"":2,""viewing_time"":29902},{""page_index"":3,""viewing_time"":10716}]","62433","instructions","instructions","2","170795","0.0-2.0","30","4","","","","","","","","","","","","",""
"","null","fixation","html-keyboard-response","3","171303","0.0-3.0-0.0","30","4","<div style = ""font-size:60px;""> + </div>","null","","","","","","","","","","",""
"","null","learning_trial","html-keyboard-response","4","173809","0.0-3.0-1.0","30","4","
    <div class = 'grid-container'>
        <div class='header-text'> Friends </div>
        <div>
            Matthew
            <img width='150' style='border:2px black solid;' src='stims/img/CFD-LM-200-045-N.jpg'>
        </div>
        <div> &nbsp; + &nbsp; </div>
        <div>
            Nathaniel
            <img width='150' style='border:2px black solid;' src='stims/img/CFD-BM-226-276-N.jpg'>
        </div>
        <div class='header-text'> &nbsp; </div>
    </div>
    ","null","0","true","11","stims/img/CFD-LM-200-045-N.jpg","Matthew","13","stims/img/CFD-BM-226-276-N.jpg","Nathaniel","","",""
"","null","fixation","html-keyboard-response","5","174318","0.0-3.0-0.1","30","4","<div style = ""font-size:60px;""> + </div>","null","","","","","","","","","","",""
"","null","learning_trial","html-keyboard-response","6","176825","0.0-3.0-1.1","30","4","
    <div class = 'grid-container'>
        <div class='header-text'> Friends </div>
        <div>
            Andrew
            <img width='150' style='border:2px black solid;' src='stims/img/CFD-AM-220-134-N.jpg'>
        </div>
        <div> &nbsp; + &nbsp; </div>
        <div>
            Victoria
            <img width='150' style='border:2px black solid;' src='stims/img/CFD-WF-247-065-N.jpg'>
        </div>
        <div class='header-text'> &nbsp; </div>
    </div>
    ","null","0","true","3","stims/img/CFD-AM-220-134-N.jpg","Andrew","4","stims/img/CFD-WF-247-065-N.jpg","Victoria","","",""
"","null","fixation","html-keyboard-response","7","177331","0.0-3.0-0.2","30","4","<div style = ""font-size:60px;""> + </div>","null","","","","","","","","","","",""
"","null","learning_trial","html-keyboard-response","8","179840","0.0-3.0-1.2","30","4","
    <div class = 'grid-container'>
        <div class='header-text'> Friends </div>
        <div>
            Liam
            <img width='150' style='border:2px black solid;' src='stims/img/CFD-WM-208-068-N.jpg'>
        </div>
        <div> &nbsp; + &nbsp; </div>
        <div>
            Hailey
            <img width='150' style='border:2px black solid;' src='stims/img/CFD-LF-254-125-N.jpg'>
        </div>
        <div class='header-text'> &nbsp; </div>
    </div>
    ","null","0","false","8","stims/img/CFD-LF-254-125-N.jpg","Hailey","9","stims/img/CFD-WM-208-068-N.jpg","Liam","","",""
"","null","fixation","html-keyboard-response","9","180346","0.0-3.0-0.3","30","4","<div style = ""font-size:60px;""> + </div>","null","","","","","","","","","","",""
"","null","learning_trial","html-keyboard-response","10","182852","0.0-3.0-1.3","30","4","
    <div class = 'grid-container'>
        <div class='header-text'> Friends </div>
        <div>
            Liam
            <img width='150' style='border:2px black solid;' src='stims/img/CFD-WM-208-068-N.jpg'>
        </div>
        <div> &nbsp; + &nbsp; </div>
        <div>
            Matthew
            <img width='150' style='border:2px black solid;' src='stims/img/CFD-LM-200-045-N.jpg'>
        </div>
        <div class='header-text'> &nbsp; </div>
    </div>
    ","null","0","true","9","stims/img/CFD-WM-208-068-N.jpg","Liam","11","stims/img/CFD-LM-200-045-N.jpg","Matthew","","",""
"","null","fixation","html-keyboard-response","11","183356","0.0-3.0-0.4","30","4","<div style = ""font-size:60px;""> + </div>","null","","","","","","","","","","",""
"","null","learning_trial","html-keyboard-response","12","185862","0.0-3.0-1.4","30","4","
    <div class = 'grid-container'>
        <div class='header-text'> Friends </div>
        <div>
            Ella
            <img width='150' style='border:2px black solid;' src='stims/img/CFD-WF-203-229-N.jpg'>
        </div>
        <div> &nbsp; + &nbsp; </div>
        <div>
            Victoria
            <img width='150' style='border:2px black solid;' src='stims/img/CFD-WF-247-065-N.jpg'>
        </div>
        <div class='header-text'> &nbsp; </div>
    </div>
    ","null","0","true","2","stims/img/CFD-WF-203-229-N.jpg","Ella","4","stims/img/CFD-WF-247-065-N.jpg","Victoria","","",""
"","null","fixation","html-keyboard-response","13","186368","0.0-3.0-0.5","30","4","<div style = ""font-size:60px;""> + </div>","null","","","","","","","","","","",""
"","null","learning_trial","html-keyboard-response","14","188876","0.0-3.0-1.5","30","4","
    <div class = 'grid-container'>
        <div class='header-text'> Friends </div>
        <div>
            Daniel
            <img width='150' style='border:2px black solid;' src='stims/img/CFD-WM-245-123-N.jpg'>
        </div>
        <div> &nbsp; + &nbsp; </div>
        <div>
            Ella
            <img width='150' style='border:2px black solid;' src='stims/img/CFD-WF-203-229-N.jpg'>
        </div>
        <div class='header-text'> &nbsp; </div>
    </div>
    ","null","0","true","1","stims/img/CFD-WM-245-123-N.jpg","Daniel","2","stims/img/CFD-WF-203-229-N.jpg","Ella","","",""
"","null","fixation","html-keyboard-response","15","189383","0.0-3.0-0.6","30","4","<div style = ""font-size:60px;""> + </div>","null","","","","","","","","","","",""
"","null","learning_trial","html-keyboard-response","16","191890","0.0-3.0-1.6","30","4","
    <div class = 'grid-container'>
        <div class='header-text'> Friends </div>
        <div>
            Jeremiah
            <img width='150' style='border:2px black solid;' src='stims/img/CFD-BM-205-001-N.jpg'>
        </div>
        <div> &nbsp; + &nbsp; </div>
        <div>
            Ethan
            <img width='150' style='border:2px black solid;' src='stims/img/CFD-LM-247-095-N.jpg'>
        </div>
        <div class='header-text'> &nbsp; </div>
    </div>
    ","null","0","true","5","stims/img/CFD-BM-205-001-N.jpg","Jeremiah","7","stims/img/CFD-LM-247-095-N.jpg","Ethan","","",""
"","null","fixation","html-keyboard-response","17","192395","0.0-3.0-0.7","30","4","<div style = ""font-size:60px;""> + </div>","null","","","","","","","","","","",""
"","null","learning_trial","html-keyboard-response","18","194899","0.0-3.0-1.7","30","4","
    <div class = 'grid-container'>
        <div class='header-text'> Friends </div>
        <div>
            Ethan
            <img width='150' style='border:2px black solid;' src='stims/img/CFD-LM-247-095-N.jpg'>
        </div>
        <div> &nbsp; + &nbsp; </div>
        <div>
            Elaine
            <img width='150' style='border:2px black solid;' src='stims/img/CFD-AF-224-026-N.jpg'>
        </div>
        <div class='header-text'> &nbsp; </div>
    </div>
    ","null","0","false","6","stims/img/CFD-AF-224-026-N.jpg","Elaine","7","stims/img/CFD-LM-247-095-N.jpg","Ethan","","",""
"","null","fixation","html-keyboard-response","19","195405","0.0-3.0-0.8","30","4","<div style = ""font-size:60px;""> + </div>","null","","","","","","","","","","",""
"","null","learning_trial","html-keyboard-response","20","197909","0.0-3.0-1.8","30","4","
    <div class = 'grid-container'>
        <div class='header-text'> Friends </div>
        <div>
            Ella
            <img width='150' style='border:2px black solid;' src='stims/img/CFD-WF-203-229-N.jpg'>
        </div>
        <div> &nbsp; + &nbsp; </div>
        <div>
            Andrew
            <img width='150' style='border:2px black solid;' src='stims/img/CFD-AM-220-134-N.jpg'>
        </div>
        <div class='header-text'> &nbsp; </div>
    </div>
    ","null","0","true","2","stims/img/CFD-WF-203-229-N.jpg","Ella","3","stims/img/CFD-AM-220-134-N.jpg","Andrew","","",""
"","null","fixation","html-keyboard-response","21","198415","0.0-3.0-0.9","30","4","<div style = ""font-size:60px;""> + </div>","null","","","","","","","","","","",""
"","null","learning_trial","html-keyboard-response","22","200921","0.0-3.0-1.9","30","4","
    <div class = 'grid-container'>
        <div class='header-text'> Friends </div>
        <div>
            Matthew
            <img width='150' style='border:2px black solid;' src='stims/img/CFD-LM-200-045-N.jpg'>
        </div>
        <div> &nbsp; + &nbsp; </div>
        <div>
            Gabriela
            <img width='150' style='border:2px black solid;' src='stims/img/CFD-LF-223-064-N.jpg'>
        </div>
        <div class='header-text'> &nbsp; </div>
    </div>
    ","null","0","true","11","stims/img/CFD-LM-200-045-N.jpg","Matthew","12","stims/img/CFD-LF-223-064-N.jpg","Gabriela","","",""
"","null","fixation","html-keyboard-response","23","201427","0.0-3.0-0.10","30","4","<div style = ""font-size:60px;""> + </div>","null","","","","","","","","","","",""
"","null","learning_trial","html-keyboard-response","24","203932","0.0-3.0-1.10","30","4","
    <div class = 'grid-container'>
        <div class='header-text'> Friends </div>
        <div>
            Gabriela
            <img width='150' style='border:2px black solid;' src='stims/img/CFD-LF-223-064-N.jpg'>
        </div>
        <div> &nbsp; + &nbsp; </div>
        <div>
            Nathaniel
            <img width='150' style='border:2px black solid;' src='stims/img/CFD-BM-226-276-N.jpg'>
        </div>
        <div class='header-text'> &nbsp; </div>
    </div>
    ","null","0","true","12","stims/img/CFD-LF-223-064-N.jpg","Gabriela","13","stims/img/CFD-BM-226-276-N.jpg","Nathaniel","","",""
"","null","fixation","html-keyboard-response","25","204436","0.0-3.0-0.11","30","4","<div style = ""font-size:60px;""> + </div>","null","","","","","","","","","","",""
"","null","learning_trial","html-keyboard-response","26","206940","0.0-3.0-1.11","30","4","
    <div class = 'grid-container'>
        <div class='header-text'> Friends </div>
        <div>
            Hailey
            <img width='150' style='border:2px black solid;' src='stims/img/CFD-LF-254-125-N.jpg'>
        </div>
        <div> &nbsp; + &nbsp; </div>
        <div>
            Daniel
            <img width='150' style='border:2px black solid;' src='stims/img/CFD-WM-245-123-N.jpg'>
        </div>
        <div class='header-text'> &nbsp; </div>
    </div>
    ","null","0","false","1","stims/img/CFD-WM-245-123-N.jpg","Daniel","8","stims/img/CFD-LF-254-125-N.jpg","Hailey","","",""
"","null","fixation","html-keyboard-response","27","207444","0.0-3.0-0.12","30","4","<div style = ""font-size:60px;""> + </div>","null","","","","","","","","","","",""
"","null","learning_trial","html-keyboard-response","28","209951","0.0-3.0-1.12","30","4","
    <div class = 'grid-container'>
        <div class='header-text'> Friends </div>
        <div>
            Jeremiah
            <img width='150' style='border:2px black solid;' src='stims/img/CFD-BM-205-001-N.jpg'>
        </div>
        <div> &nbsp; + &nbsp; </div>
        <div>
            Victoria
            <img width='150' style='border:2px black solid;' src='stims/img/CFD-WF-247-065-N.jpg'>
        </div>
        <div class='header-text'> &nbsp; </div>
    </div>
    ","null","0","false","4","stims/img/CFD-WF-247-065-N.jpg","Victoria","5","stims/img/CFD-BM-205-001-N.jpg","Jeremiah","","",""
"","null","fixation","html-keyboard-response","29","210457","0.0-3.0-0.13","30","4","<div style = ""font-size:60px;""> + </div>","null","","","","","","","","","","",""
"","null","learning_trial","html-keyboard-response","30","212960","0.0-3.0-1.13","30","4","
    <div class = 'grid-container'>
        <div class='header-text'> Friends </div>
        <div>
            Kayla
            <img width='150' style='border:2px black solid;' src='stims/img/CFD-BF-222-240-N.jpg'>
        </div>
        <div> &nbsp; + &nbsp; </div>
        <div>
            Hailey
            <img width='150' style='border:2px black solid;' src='stims/img/CFD-LF-254-125-N.jpg'>
        </div>
        <div class='header-text'> &nbsp; </div>
    </div>
    ","null","0","false","8","stims/img/CFD-LF-254-125-N.jpg","Hailey","10","stims/img/CFD-BF-222-240-N.jpg","Kayla","","",""
"","null","fixation","html-keyboard-response","31","213466","0.0-3.0-0.14","30","4","<div style = ""font-size:60px;""> + </div>","null","","","","","","","","","","",""
"","null","learning_trial","html-keyboard-response","32","215971","0.0-3.0-1.14","30","4","
    <div class = 'grid-container'>
        <div class='header-text'> Friends </div>
        <div>
            Andrew
            <img width='150' style='border:2px black solid;' src='stims/img/CFD-AM-220-134-N.jpg'>
        </div>
        <div> &nbsp; + &nbsp; </div>
        <div>
            Jeremiah
            <img width='150' style='border:2px black solid;' src='stims/img/CFD-BM-205-001-N.jpg'>
        </div>
        <div class='header-text'> &nbsp; </div>
    </div>
    ","null","0","true","3","stims/img/CFD-AM-220-134-N.jpg","Andrew","5","stims/img/CFD-BM-205-001-N.jpg","Jeremiah","","",""
"","null","fixation","html-keyboard-response","33","216477","0.0-3.0-0.15","30","4","<div style = ""font-size:60px;""> + </div>","null","","","","","","","","","","",""
"","null","learning_trial","html-keyboard-response","34","218984","0.0-3.0-1.15","30","4","
    <div class = 'grid-container'>
        <div class='header-text'> Friends </div>
        <div>
            Victoria
            <img width='150' style='border:2px black solid;' src='stims/img/CFD-WF-247-065-N.jpg'>
        </div>
        <div> &nbsp; + &nbsp; </div>
        <div>
            Elaine
            <img width='150' style='border:2px black solid;' src='stims/img/CFD-AF-224-026-N.jpg'>
        </div>
        <div class='header-text'> &nbsp; </div>
    </div>
    ","null","0","true","4","stims/img/CFD-WF-247-065-N.jpg","Victoria","6","stims/img/CFD-AF-224-026-N.jpg","Elaine","","",""
"","null","fixation","html-keyboard-response","35","219489","0.0-3.0-0.16","30","4","<div style = ""font-size:60px;""> + </div>","null","","","","","","","","","","",""
"","null","learning_trial","html-keyboard-response","36","221991","0.0-3.0-1.16","30","4","
    <div class = 'grid-container'>
        <div class='header-text'> Friends </div>
        <div>
            Gabriela
            <img width='150' style='border:2px black solid;' src='stims/img/CFD-LF-223-064-N.jpg'>
        </div>
        <div> &nbsp; + &nbsp; </div>
        <div>
            Kayla
            <img width='150' style='border:2px black solid;' src='stims/img/CFD-BF-222-240-N.jpg'>
        </div>
        <div class='header-text'> &nbsp; </div>
    </div>
    ","null","0","false","10","stims/img/CFD-BF-222-240-N.jpg","Kayla","12","stims/img/CFD-LF-223-064-N.jpg","Gabriela","","",""
"","11375","break","html-keyboard-response","37","233368","0.0-3.0-2.16-0.16","30","4","If you'd like to take a break before continuing, 
    please do so now. <p>To continue, please press the spacebar.</p>"," ","","","","","","","","","","",""
"","null","fixation","html-keyboard-response","38","233873","0.0-3.0-0.17","30","4","<div style = ""font-size:60px;""> + </div>","null","","","","","","","","","","",""
"","null","learning_trial","html-keyboard-response","39","236379","0.0-3.0-1.17","30","4","
    <div class = 'grid-container'>
        <div class='header-text'> Friends </div>
        <div>
            Victoria
            <img width='150' style='border:2px black solid;' src='stims/img/CFD-WF-247-065-N.jpg'>
        </div>
        <div> &nbsp; + &nbsp; </div>
        <div>
            Andrew
            <img width='150' style='border:2px black solid;' src='stims/img/CFD-AM-220-134-N.jpg'>
        </div>
        <div class='header-text'> &nbsp; </div>
    </div>
    ","null","1","false","3","stims/img/CFD-AM-220-134-N.jpg","Andrew","4","stims/img/CFD-WF-247-065-N.jpg","Victoria","","",""
"","null","fixation","html-keyboard-response","40","236886","0.0-3.0-0.18","30","4","<div style = ""font-size:60px;""> + </div>","null","","","","","","","","","","",""
"","null","learning_trial","html-keyboard-response","41","239393","0.0-3.0-1.18","30","4","
    <div class = 'grid-container'>
        <div class='header-text'> Friends </div>
        <div>
            Kayla
            <img width='150' style='border:2px black solid;' src='stims/img/CFD-BF-222-240-N.jpg'>
        </div>
        <div> &nbsp; + &nbsp; </div>
        <div>
            Gabriela
            <img width='150' style='border:2px black solid;' src='stims/img/CFD-LF-223-064-N.jpg'>
        </div>
        <div class='header-text'> &nbsp; </div>
    </div>
    ","null","1","true","10","stims/img/CFD-BF-222-240-N.jpg","Kayla","12","stims/img/CFD-LF-223-064-N.jpg","Gabriela","","",""
"","null","fixation","html-keyboard-response","42","239899","0.0-3.0-0.19","30","4","<div style = ""font-size:60px;""> + </div>","null","","","","","","","","","","",""
"","null","learning_trial","html-keyboard-response","43","242406","0.0-3.0-1.19","30","4","
    <div class = 'grid-container'>
        <div class='header-text'> Friends </div>
        <div>
            Liam
            <img width='150' style='border:2px black solid;' src='stims/img/CFD-WM-208-068-N.jpg'>
        </div>
        <div> &nbsp; + &nbsp; </div>
        <div>
            Matthew
            <img width='150' style='border:2px black solid;' src='stims/img/CFD-LM-200-045-N.jpg'>
        </div>
        <div class='header-text'> &nbsp; </div>
    </div>
    ","null","1","true","9","stims/img/CFD-WM-208-068-N.jpg","Liam","11","stims/img/CFD-LM-200-045-N.jpg","Matthew","","",""
"","null","fixation","html-keyboard-response","44","242912","0.0-3.0-0.20","30","4","<div style = ""font-size:60px;""> + </div>","null","","","","","","","","","","",""
"","null","learning_trial","html-keyboard-response","45","245419","0.0-3.0-1.20","30","4","
    <div class = 'grid-container'>
        <div class='header-text'> Friends </div>
        <div>
            Ella
            <img width='150' style='border:2px black solid;' src='stims/img/CFD-WF-203-229-N.jpg'>
        </div>
        <div> &nbsp; + &nbsp; </div>
        <div>
            Andrew
            <img width='150' style='border:2px black solid;' src='stims/img/CFD-AM-220-134-N.jpg'>
        </div>
        <div class='header-text'> &nbsp; </div>
    </div>
    ","null","1","true","2","stims/img/CFD-WF-203-229-N.jpg","Ella","3","stims/img/CFD-AM-220-134-N.jpg","Andrew","","",""
"","null","fixation","html-keyboard-response","46","245926","0.0-3.0-0.21","30","4","<div style = ""font-size:60px;""> + </div>","null","","","","","","","","","","",""
"","null","learning_trial","html-keyboard-response","47","248429","0.0-3.0-1.21","30","4","
    <div class = 'grid-container'>
        <div class='header-text'> Friends </div>
        <div>
            Nathaniel
            <img width='150' style='border:2px black solid;' src='stims/img/CFD-BM-226-276-N.jpg'>
        </div>
        <div> &nbsp; + &nbsp; </div>
        <div>
            Matthew
            <img width='150' style='border:2px black solid;' src='stims/img/CFD-LM-200-045-N.jpg'>
        </div>
        <div class='header-text'> &nbsp; </div>
    </div>
    ","null","1","false","11","stims/img/CFD-LM-200-045-N.jpg","Matthew","13","stims/img/CFD-BM-226-276-N.jpg","Nathaniel","","",""
"","null","fixation","html-keyboard-response","48","248934","0.0-3.0-0.22","30","4","<div style = ""font-size:60px;""> + </div>","null","","","","","","","","","","",""
"","null","learning_trial","html-keyboard-response","49","251442","0.0-3.0-1.22","30","4","
    <div class = 'grid-container'>
        <div class='header-text'> Friends </div>
        <div>
            Liam
            <img width='150' style='border:2px black solid;' src='stims/img/CFD-WM-208-068-N.jpg'>
        </div>
        <div> &nbsp; + &nbsp; </div>
        <div>
            Hailey
            <img width='150' style='border:2px black solid;' src='stims/img/CFD-LF-254-125-N.jpg'>
        </div>
        <div class='header-text'> &nbsp; </div>
    </div>
    ","null","1","false","8","stims/img/CFD-LF-254-125-N.jpg","Hailey","9","stims/img/CFD-WM-208-068-N.jpg","Liam","","",""
"","null","fixation","html-keyboard-response","50","251948","0.0-3.0-0.23","30","4","<div style = ""font-size:60px;""> + </div>","null","","","","","","","","","","",""
"","null","learning_trial","html-keyboard-response","51","254455","0.0-3.0-1.23","30","4","
    <div class = 'grid-container'>
        <div class='header-text'> Friends </div>
        <div>
            Andrew
            <img width='150' style='border:2px black solid;' src='stims/img/CFD-AM-220-134-N.jpg'>
        </div>
        <div> &nbsp; + &nbsp; </div>
        <div>
            Jeremiah
            <img width='150' style='border:2px black solid;' src='stims/img/CFD-BM-205-001-N.jpg'>
        </div>
        <div class='header-text'> &nbsp; </div>
    </div>
    ","null","1","true","3","stims/img/CFD-AM-220-134-N.jpg","Andrew","5","stims/img/CFD-BM-205-001-N.jpg","Jeremiah","","",""
"","null","fixation","html-keyboard-response","52","254961","0.0-3.0-0.24","30","4","<div style = ""font-size:60px;""> + </div>","null","","","","","","","","","","",""
"","null","learning_trial","html-keyboard-response","53","257467","0.0-3.0-1.24","30","4","
    <div class = 'grid-container'>
        <div class='header-text'> Friends </div>
        <div>
            Victoria
            <img width='150' style='border:2px black solid;' src='stims/img/CFD-WF-247-065-N.jpg'>
        </div>
        <div> &nbsp; + &nbsp; </div>
        <div>
            Jeremiah
            <img width='150' style='border:2px black solid;' src='stims/img/CFD-BM-205-001-N.jpg'>
        </div>
        <div class='header-text'> &nbsp; </div>
    </div>
    ","null","1","true","4","stims/img/CFD-WF-247-065-N.jpg","Victoria","5","stims/img/CFD-BM-205-001-N.jpg","Jeremiah","","",""
"","null","fixation","html-keyboard-response","54","257968","0.0-3.0-0.25","30","4","<div style = ""font-size:60px;""> + </div>","null","","","","","","","","","","",""
"","null","learning_trial","html-keyboard-response","55","260476","0.0-3.0-1.25","30","4","
    <div class = 'grid-container'>
        <div class='header-text'> Friends </div>
        <div>
            Gabriela
            <img width='150' style='border:2px black solid;' src='stims/img/CFD-LF-223-064-N.jpg'>
        </div>
        <div> &nbsp; + &nbsp; </div>
        <div>
            Nathaniel
            <img width='150' style='border:2px black solid;' src='stims/img/CFD-BM-226-276-N.jpg'>
        </div>
        <div class='header-text'> &nbsp; </div>
    </div>
    ","null","1","true","12","stims/img/CFD-LF-223-064-N.jpg","Gabriela","13","stims/img/CFD-BM-226-276-N.jpg","Nathaniel","","",""
"","null","fixation","html-keyboard-response","56","260976","0.0-3.0-0.26","30","4","<div style = ""font-size:60px;""> + </div>","null","","","","","","","","","","",""
"","null","learning_trial","html-keyboard-response","57","263484","0.0-3.0-1.26","30","4","
    <div class = 'grid-container'>
        <div class='header-text'> Friends </div>
        <div>
            Kayla
            <img width='150' style='border:2px black solid;' src='stims/img/CFD-BF-222-240-N.jpg'>
        </div>
        <div> &nbsp; + &nbsp; </div>
        <div>
            Hailey
            <img width='150' style='border:2px black solid;' src='stims/img/CFD-LF-254-125-N.jpg'>
        </div>
        <div class='header-text'> &nbsp; </div>
    </div>
    ","null","1","false","8","stims/img/CFD-LF-254-125-N.jpg","Hailey","10","stims/img/CFD-BF-222-240-N.jpg","Kayla","","",""
"","null","fixation","html-keyboard-response","58","263989","0.0-3.0-0.27","30","4","<div style = ""font-size:60px;""> + </div>","null","","","","","","","","","","",""
"","null","learning_trial","html-keyboard-response","59","266494","0.0-3.0-1.27","30","4","
    <div class = 'grid-container'>
        <div class='header-text'> Friends </div>
        <div>
            Ella
            <img width='150' style='border:2px black solid;' src='stims/img/CFD-WF-203-229-N.jpg'>
        </div>
        <div> &nbsp; + &nbsp; </div>
        <div>
            Daniel
            <img width='150' style='border:2px black solid;' src='stims/img/CFD-WM-245-123-N.jpg'>
        </div>
        <div class='header-text'> &nbsp; </div>
    </div>
    ","null","1","false","1","stims/img/CFD-WM-245-123-N.jpg","Daniel","2","stims/img/CFD-WF-203-229-N.jpg","Ella","","",""
"","null","fixation","html-keyboard-response","60","266997","0.0-3.0-0.28","30","4","<div style = ""font-size:60px;""> + </div>","null","","","","","","","","","","",""
"","null","learning_trial","html-keyboard-response","61","269503","0.0-3.0-1.28","30","4","
    <div class = 'grid-container'>
        <div class='header-text'> Friends </div>
        <div>
            Gabriela
            <img width='150' style='border:2px black solid;' src='stims/img/CFD-LF-223-064-N.jpg'>
        </div>
        <div> &nbsp; + &nbsp; </div>
        <div>
            Matthew
            <img width='150' style='border:2px black solid;' src='stims/img/CFD-LM-200-045-N.jpg'>
        </div>
        <div class='header-text'> &nbsp; </div>
    </div>
    ","null","1","false","11","stims/img/CFD-LM-200-045-N.jpg","Matthew","12","stims/img/CFD-LF-223-064-N.jpg","Gabriela","","",""
"","null","fixation","html-keyboard-response","62","270009","0.0-3.0-0.29","30","4","<div style = ""font-size:60px;""> + </div>","null","","","","","","","","","","",""
"","null","learning_trial","html-keyboard-response","63","272516","0.0-3.0-1.29","30","4","
    <div class = 'grid-container'>
        <div class='header-text'> Friends </div>
        <div>
            Elaine
            <img width='150' style='border:2px black solid;' src='stims/img/CFD-AF-224-026-N.jpg'>
        </div>
        <div> &nbsp; + &nbsp; </div>
        <div>
            Ethan
            <img width='150' style='border:2px black solid;' src='stims/img/CFD-LM-247-095-N.jpg'>
        </div>
        <div class='header-text'> &nbsp; </div>
    </div>
    ","null","1","true","6","stims/img/CFD-AF-224-026-N.jpg","Elaine","7","stims/img/CFD-LM-247-095-N.jpg","Ethan","","",""
"","null","fixation","html-keyboard-response","64","273021","0.0-3.0-0.30","30","4","<div style = ""font-size:60px;""> + </div>","null","","","","","","","","","","",""
"","null","learning_trial","html-keyboard-response","65","275529","0.0-3.0-1.30","30","4","
    <div class = 'grid-container'>
        <div class='header-text'> Friends </div>
        <div>
            Daniel
            <img width='150' style='border:2px black solid;' src='stims/img/CFD-WM-245-123-N.jpg'>
        </div>
        <div> &nbsp; + &nbsp; </div>
        <div>
            Hailey
            <img width='150' style='border:2px black solid;' src='stims/img/CFD-LF-254-125-N.jpg'>
        </div>
        <div class='header-text'> &nbsp; </div>
    </div>
    ","null","1","true","1","stims/img/CFD-WM-245-123-N.jpg","Daniel","8","stims/img/CFD-LF-254-125-N.jpg","Hailey","","",""
"","null","fixation","html-keyboard-response","66","276035","0.0-3.0-0.31","30","4","<div style = ""font-size:60px;""> + </div>","null","","","","","","","","","","",""
"","null","learning_trial","html-keyboard-response","67","278542","0.0-3.0-1.31","30","4","
    <div class = 'grid-container'>
        <div class='header-text'> Friends </div>
        <div>
            Victoria
            <img width='150' style='border:2px black solid;' src='stims/img/CFD-WF-247-065-N.jpg'>
        </div>
        <div> &nbsp; + &nbsp; </div>
        <div>
            Elaine
            <img width='150' style='border:2px black solid;' src='stims/img/CFD-AF-224-026-N.jpg'>
        </div>
        <div class='header-text'> &nbsp; </div>
    </div>
    ","null","1","true","4","stims/img/CFD-WF-247-065-N.jpg","Victoria","6","stims/img/CFD-AF-224-026-N.jpg","Elaine","","",""
"","null","fixation","html-keyboard-response","68","279048","0.0-3.0-0.32","30","4","<div style = ""font-size:60px;""> + </div>","null","","","","","","","","","","",""
"","null","learning_trial","html-keyboard-response","69","281554","0.0-3.0-1.32","30","4","
    <div class = 'grid-container'>
        <div class='header-text'> Friends </div>
        <div>
            Victoria
            <img width='150' style='border:2px black solid;' src='stims/img/CFD-WF-247-065-N.jpg'>
        </div>
        <div> &nbsp; + &nbsp; </div>
        <div>
            Ella
            <img width='150' style='border:2px black solid;' src='stims/img/CFD-WF-203-229-N.jpg'>
        </div>
        <div class='header-text'> &nbsp; </div>
    </div>
    ","null","1","false","2","stims/img/CFD-WF-203-229-N.jpg","Ella","4","stims/img/CFD-WF-247-065-N.jpg","Victoria","","",""
"","null","fixation","html-keyboard-response","70","282060","0.0-3.0-0.33","30","4","<div style = ""font-size:60px;""> + </div>","null","","","","","","","","","","",""
"","null","learning_trial","html-keyboard-response","71","284567","0.0-3.0-1.33","30","4","
    <div class = 'grid-container'>
        <div class='header-text'> Friends </div>
        <div>
            Jeremiah
            <img width='150' style='border:2px black solid;' src='stims/img/CFD-BM-205-001-N.jpg'>
        </div>
        <div> &nbsp; + &nbsp; </div>
        <div>
            Ethan
            <img width='150' style='border:2px black solid;' src='stims/img/CFD-LM-247-095-N.jpg'>
        </div>
        <div class='header-text'> &nbsp; </div>
    </div>
    ","null","1","true","5","stims/img/CFD-BM-205-001-N.jpg","Jeremiah","7","stims/img/CFD-LM-247-095-N.jpg","Ethan","","",""
"","2145","break","html-keyboard-response","72","286713","0.0-3.0-2.33-0.33","30","4","If you'd like to take a break before continuing, 
    please do so now. <p>To continue, please press the spacebar.</p>"," ","","","","","","","","","","",""
"","null","fixation","html-keyboard-response","73","287215","0.0-3.0-0.34","30","4","<div style = ""font-size:60px;""> + </div>","null","","","","","","","","","","",""
"","null","learning_trial","html-keyboard-response","74","289722","0.0-3.0-1.34","30","4","
    <div class = 'grid-container'>
        <div class='header-text'> Friends </div>
        <div>
            Victoria
            <img width='150' style='border:2px black solid;' src='stims/img/CFD-WF-247-065-N.jpg'>
        </div>
        <div> &nbsp; + &nbsp; </div>
        <div>
            Elaine
            <img width='150' style='border:2px black solid;' src='stims/img/CFD-AF-224-026-N.jpg'>
        </div>
        <div class='header-text'> &nbsp; </div>
    </div>
    ","null","2","true","4","stims/img/CFD-WF-247-065-N.jpg","Victoria","6","stims/img/CFD-AF-224-026-N.jpg","Elaine","","",""
"","null","fixation","html-keyboard-response","75","290224","0.0-3.0-0.35","30","4","<div style = ""font-size:60px;""> + </div>","null","","","","","","","","","","",""
"","null","learning_trial","html-keyboard-response","76","292732","0.0-3.0-1.35","30","4","
    <div class = 'grid-container'>
        <div class='header-text'> Friends </div>
        <div>
            Matthew
            <img width='150' style='border:2px black solid;' src='stims/img/CFD-LM-200-045-N.jpg'>
        </div>
        <div> &nbsp; + &nbsp; </div>
        <div>
            Nathaniel
            <img width='150' style='border:2px black solid;' src='stims/img/CFD-BM-226-276-N.jpg'>
        </div>
        <div class='header-text'> &nbsp; </div>
    </div>
    ","null","2","true","11","stims/img/CFD-LM-200-045-N.jpg","Matthew","13","stims/img/CFD-BM-226-276-N.jpg","Nathaniel","","",""
"","null","fixation","html-keyboard-response","77","293238","0.0-3.0-0.36","30","4","<div style = ""font-size:60px;""> + </div>","null","","","","","","","","","","",""
"","null","learning_trial","html-keyboard-response","78","295744","0.0-3.0-1.36","30","4","
    <div class = 'grid-container'>
        <div class='header-text'> Friends </div>
        <div>
            Victoria
            <img width='150' style='border:2px black solid;' src='stims/img/CFD-WF-247-065-N.jpg'>
        </div>
        <div> &nbsp; + &nbsp; </div>
        <div>
            Jeremiah
            <img width='150' style='border:2px black solid;' src='stims/img/CFD-BM-205-001-N.jpg'>
        </div>
        <div class='header-text'> &nbsp; </div>
    </div>
    ","null","2","true","4","stims/img/CFD-WF-247-065-N.jpg","Victoria","5","stims/img/CFD-BM-205-001-N.jpg","Jeremiah","","",""
"","null","fixation","html-keyboard-response","79","296251","0.0-3.0-0.37","30","4","<div style = ""font-size:60px;""> + </div>","null","","","","","","","","","","",""
"","null","learning_trial","html-keyboard-response","80","298757","0.0-3.0-1.37","30","4","
    <div class = 'grid-container'>
        <div class='header-text'> Friends </div>
        <div>
            Gabriela
            <img width='150' style='border:2px black solid;' src='stims/img/CFD-LF-223-064-N.jpg'>
        </div>
        <div> &nbsp; + &nbsp; </div>
        <div>
            Matthew
            <img width='150' style='border:2px black solid;' src='stims/img/CFD-LM-200-045-N.jpg'>
        </div>
        <div class='header-text'> &nbsp; </div>
    </div>
    ","null","2","false","11","stims/img/CFD-LM-200-045-N.jpg","Matthew","12","stims/img/CFD-LF-223-064-N.jpg","Gabriela","","",""
"","null","fixation","html-keyboard-response","81","299263","0.0-3.0-0.38","30","4","<div style = ""font-size:60px;""> + </div>","null","","","","","","","","","","",""
"","null","learning_trial","html-keyboard-response","82","301765","0.0-3.0-1.38","30","4","
    <div class = 'grid-container'>
        <div class='header-text'> Friends </div>
        <div>
            Ethan
            <img width='150' style='border:2px black solid;' src='stims/img/CFD-LM-247-095-N.jpg'>
        </div>
        <div> &nbsp; + &nbsp; </div>
        <div>
            Elaine
            <img width='150' style='border:2px black solid;' src='stims/img/CFD-AF-224-026-N.jpg'>
        </div>
        <div class='header-text'> &nbsp; </div>
    </div>
    ","null","2","false","6","stims/img/CFD-AF-224-026-N.jpg","Elaine","7","stims/img/CFD-LM-247-095-N.jpg","Ethan","","",""
"","null","fixation","html-keyboard-response","83","302272","0.0-3.0-0.39","30","4","<div style = ""font-size:60px;""> + </div>","null","","","","","","","","","","",""
"","null","learning_trial","html-keyboard-response","84","304779","0.0-3.0-1.39","30","4","
    <div class = 'grid-container'>
        <div class='header-text'> Friends </div>
        <div>
            Andrew
            <img width='150' style='border:2px black solid;' src='stims/img/CFD-AM-220-134-N.jpg'>
        </div>
        <div> &nbsp; + &nbsp; </div>
        <div>
            Victoria
            <img width='150' style='border:2px black solid;' src='stims/img/CFD-WF-247-065-N.jpg'>
        </div>
        <div class='header-text'> &nbsp; </div>
    </div>
    ","null","2","true","3","stims/img/CFD-AM-220-134-N.jpg","Andrew","4","stims/img/CFD-WF-247-065-N.jpg","Victoria","","",""
"","null","fixation","html-keyboard-response","85","305285","0.0-3.0-0.40","30","4","<div style = ""font-size:60px;""> + </div>","null","","","","","","","","","","",""
"","null","learning_trial","html-keyboard-response","86","307792","0.0-3.0-1.40","30","4","
    <div class = 'grid-container'>
        <div class='header-text'> Friends </div>
        <div>
            Andrew
            <img width='150' style='border:2px black solid;' src='stims/img/CFD-AM-220-134-N.jpg'>
        </div>
        <div> &nbsp; + &nbsp; </div>
        <div>
            Jeremiah
            <img width='150' style='border:2px black solid;' src='stims/img/CFD-BM-205-001-N.jpg'>
        </div>
        <div class='header-text'> &nbsp; </div>
    </div>
    ","null","2","true","3","stims/img/CFD-AM-220-134-N.jpg","Andrew","5","stims/img/CFD-BM-205-001-N.jpg","Jeremiah","","",""
"","null","fixation","html-keyboard-response","87","308294","0.0-3.0-0.41","30","4","<div style = ""font-size:60px;""> + </div>","null","","","","","","","","","","",""
"","null","learning_trial","html-keyboard-response","88","310801","0.0-3.0-1.41","30","4","
    <div class = 'grid-container'>
        <div class='header-text'> Friends </div>
        <div>
            Kayla
            <img width='150' style='border:2px black solid;' src='stims/img/CFD-BF-222-240-N.jpg'>
        </div>
        <div> &nbsp; + &nbsp; </div>
        <div>
            Gabriela
            <img width='150' style='border:2px black solid;' src='stims/img/CFD-LF-223-064-N.jpg'>
        </div>
        <div class='header-text'> &nbsp; </div>
    </div>
    ","null","2","true","10","stims/img/CFD-BF-222-240-N.jpg","Kayla","12","stims/img/CFD-LF-223-064-N.jpg","Gabriela","","",""
"","null","fixation","html-keyboard-response","89","311307","0.0-3.0-0.42","30","4","<div style = ""font-size:60px;""> + </div>","null","","","","","","","","","","",""
"","null","learning_trial","html-keyboard-response","90","313814","0.0-3.0-1.42","30","4","
    <div class = 'grid-container'>
        <div class='header-text'> Friends </div>
        <div>
            Victoria
            <img width='150' style='border:2px black solid;' src='stims/img/CFD-WF-247-065-N.jpg'>
        </div>
        <div> &nbsp; + &nbsp; </div>
        <div>
            Ella
            <img width='150' style='border:2px black solid;' src='stims/img/CFD-WF-203-229-N.jpg'>
        </div>
        <div class='header-text'> &nbsp; </div>
    </div>
    ","null","2","false","2","stims/img/CFD-WF-203-229-N.jpg","Ella","4","stims/img/CFD-WF-247-065-N.jpg","Victoria","","",""
"","null","fixation","html-keyboard-response","91","314320","0.0-3.0-0.43","30","4","<div style = ""font-size:60px;""> + </div>","null","","","","","","","","","","",""
"","null","learning_trial","html-keyboard-response","92","316827","0.0-3.0-1.43","30","4","
    <div class = 'grid-container'>
        <div class='header-text'> Friends </div>
        <div>
            Jeremiah
            <img width='150' style='border:2px black solid;' src='stims/img/CFD-BM-205-001-N.jpg'>
        </div>
        <div> &nbsp; + &nbsp; </div>
        <div>
            Ethan
            <img width='150' style='border:2px black solid;' src='stims/img/CFD-LM-247-095-N.jpg'>
        </div>
        <div class='header-text'> &nbsp; </div>
    </div>
    ","null","2","true","5","stims/img/CFD-BM-205-001-N.jpg","Jeremiah","7","stims/img/CFD-LM-247-095-N.jpg","Ethan","","",""
"","null","fixation","html-keyboard-response","93","317328","0.0-3.0-0.44","30","4","<div style = ""font-size:60px;""> + </div>","null","","","","","","","","","","",""
"","null","learning_trial","html-keyboard-response","94","319835","0.0-3.0-1.44","30","4","
    <div class = 'grid-container'>
        <div class='header-text'> Friends </div>
        <div>
            Kayla
            <img width='150' style='border:2px black solid;' src='stims/img/CFD-BF-222-240-N.jpg'>
        </div>
        <div> &nbsp; + &nbsp; </div>
        <div>
            Hailey
            <img width='150' style='border:2px black solid;' src='stims/img/CFD-LF-254-125-N.jpg'>
        </div>
        <div class='header-text'> &nbsp; </div>
    </div>
    ","null","2","false","8","stims/img/CFD-LF-254-125-N.jpg","Hailey","10","stims/img/CFD-BF-222-240-N.jpg","Kayla","","",""
"","null","fixation","html-keyboard-response","95","320341","0.0-3.0-0.45","30","4","<div style = ""font-size:60px;""> + </div>","null","","","","","","","","","","",""
"","null","learning_trial","html-keyboard-response","96","322846","0.0-3.0-1.45","30","4","
    <div class = 'grid-container'>
        <div class='header-text'> Friends </div>
        <div>
            Daniel
            <img width='150' style='border:2px black solid;' src='stims/img/CFD-WM-245-123-N.jpg'>
        </div>
        <div> &nbsp; + &nbsp; </div>
        <div>
            Ella
            <img width='150' style='border:2px black solid;' src='stims/img/CFD-WF-203-229-N.jpg'>
        </div>
        <div class='header-text'> &nbsp; </div>
    </div>
    ","null","2","true","1","stims/img/CFD-WM-245-123-N.jpg","Daniel","2","stims/img/CFD-WF-203-229-N.jpg","Ella","","",""
"","null","fixation","html-keyboard-response","97","323352","0.0-3.0-0.46","30","4","<div style = ""font-size:60px;""> + </div>","null","","","","","","","","","","",""
"","null","learning_trial","html-keyboard-response","98","325860","0.0-3.0-1.46","30","4","
    <div class = 'grid-container'>
        <div class='header-text'> Friends </div>
        <div>
            Hailey
            <img width='150' style='border:2px black solid;' src='stims/img/CFD-LF-254-125-N.jpg'>
        </div>
        <div> &nbsp; + &nbsp; </div>
        <div>
            Liam
            <img width='150' style='border:2px black solid;' src='stims/img/CFD-WM-208-068-N.jpg'>
        </div>
        <div class='header-text'> &nbsp; </div>
    </div>
    ","null","2","true","8","stims/img/CFD-LF-254-125-N.jpg","Hailey","9","stims/img/CFD-WM-208-068-N.jpg","Liam","","",""
"","null","fixation","html-keyboard-response","99","326367","0.0-3.0-0.47","30","4","<div style = ""font-size:60px;""> + </div>","null","","","","","","","","","","",""
"","null","learning_trial","html-keyboard-response","100","328871","0.0-3.0-1.47","30","4","
    <div class = 'grid-container'>
        <div class='header-text'> Friends </div>
        <div>
            Andrew
            <img width='150' style='border:2px black solid;' src='stims/img/CFD-AM-220-134-N.jpg'>
        </div>
        <div> &nbsp; + &nbsp; </div>
        <div>
            Ella
            <img width='150' style='border:2px black solid;' src='stims/img/CFD-WF-203-229-N.jpg'>
        </div>
        <div class='header-text'> &nbsp; </div>
    </div>
    ","null","2","false","2","stims/img/CFD-WF-203-229-N.jpg","Ella","3","stims/img/CFD-AM-220-134-N.jpg","Andrew","","",""
"","null","fixation","html-keyboard-response","101","329377","0.0-3.0-0.48","30","4","<div style = ""font-size:60px;""> + </div>","null","","","","","","","","","","",""
"","null","learning_trial","html-keyboard-response","102","331885","0.0-3.0-1.48","30","4","
    <div class = 'grid-container'>
        <div class='header-text'> Friends </div>
        <div>
            Gabriela
            <img width='150' style='border:2px black solid;' src='stims/img/CFD-LF-223-064-N.jpg'>
        </div>
        <div> &nbsp; + &nbsp; </div>
        <div>
            Nathaniel
            <img width='150' style='border:2px black solid;' src='stims/img/CFD-BM-226-276-N.jpg'>
        </div>
        <div class='header-text'> &nbsp; </div>
    </div>
    ","null","2","true","12","stims/img/CFD-LF-223-064-N.jpg","Gabriela","13","stims/img/CFD-BM-226-276-N.jpg","Nathaniel","","",""
"","null","fixation","html-keyboard-response","103","332391","0.0-3.0-0.49","30","4","<div style = ""font-size:60px;""> + </div>","null","","","","","","","","","","",""
"","null","learning_trial","html-keyboard-response","104","334898","0.0-3.0-1.49","30","4","
    <div class = 'grid-container'>
        <div class='header-text'> Friends </div>
        <div>
            Liam
            <img width='150' style='border:2px black solid;' src='stims/img/CFD-WM-208-068-N.jpg'>
        </div>
        <div> &nbsp; + &nbsp; </div>
        <div>
            Matthew
            <img width='150' style='border:2px black solid;' src='stims/img/CFD-LM-200-045-N.jpg'>
        </div>
        <div class='header-text'> &nbsp; </div>
    </div>
    ","null","2","true","9","stims/img/CFD-WM-208-068-N.jpg","Liam","11","stims/img/CFD-LM-200-045-N.jpg","Matthew","","",""
"","null","fixation","html-keyboard-response","105","335404","0.0-3.0-0.50","30","4","<div style = ""font-size:60px;""> + </div>","null","","","","","","","","","","",""
"","null","learning_trial","html-keyboard-response","106","337911","0.0-3.0-1.50","30","4","
    <div class = 'grid-container'>
        <div class='header-text'> Friends </div>
        <div>
            Daniel
            <img width='150' style='border:2px black solid;' src='stims/img/CFD-WM-245-123-N.jpg'>
        </div>
        <div> &nbsp; + &nbsp; </div>
        <div>
            Hailey
            <img width='150' style='border:2px black solid;' src='stims/img/CFD-LF-254-125-N.jpg'>
        </div>
        <div class='header-text'> &nbsp; </div>
    </div>
    ","null","2","true","1","stims/img/CFD-WM-245-123-N.jpg","Daniel","8","stims/img/CFD-LF-254-125-N.jpg","Hailey","","",""
"","1910","break","html-keyboard-response","107","339823","0.0-3.0-2.50-0.50","30","4","If you'd like to take a break before continuing, 
    please do so now. <p>To continue, please press the spacebar.</p>"," ","","","","","","","","","","",""
"","null","fixation","html-keyboard-response","108","340327","0.0-3.0-0.51","30","4","<div style = ""font-size:60px;""> + </div>","null","","","","","","","","","","",""
"","null","learning_trial","html-keyboard-response","109","342832","0.0-3.0-1.51","30","4","
    <div class = 'grid-container'>
        <div class='header-text'> Friends </div>
        <div>
            Liam
            <img width='150' style='border:2px black solid;' src='stims/img/CFD-WM-208-068-N.jpg'>
        </div>
        <div> &nbsp; + &nbsp; </div>
        <div>
            Hailey
            <img width='150' style='border:2px black solid;' src='stims/img/CFD-LF-254-125-N.jpg'>
        </div>
        <div class='header-text'> &nbsp; </div>
    </div>
    ","null","3","false","8","stims/img/CFD-LF-254-125-N.jpg","Hailey","9","stims/img/CFD-WM-208-068-N.jpg","Liam","","",""
"","null","fixation","html-keyboard-response","110","343338","0.0-3.0-0.52","30","4","<div style = ""font-size:60px;""> + </div>","null","","","","","","","","","","",""
"","null","learning_trial","html-keyboard-response","111","345845","0.0-3.0-1.52","30","4","
    <div class = 'grid-container'>
        <div class='header-text'> Friends </div>
        <div>
            Victoria
            <img width='150' style='border:2px black solid;' src='stims/img/CFD-WF-247-065-N.jpg'>
        </div>
        <div> &nbsp; + &nbsp; </div>
        <div>
            Andrew
            <img width='150' style='border:2px black solid;' src='stims/img/CFD-AM-220-134-N.jpg'>
        </div>
        <div class='header-text'> &nbsp; </div>
    </div>
    ","null","3","false","3","stims/img/CFD-AM-220-134-N.jpg","Andrew","4","stims/img/CFD-WF-247-065-N.jpg","Victoria","","",""
"","null","fixation","html-keyboard-response","112","346349","0.0-3.0-0.53","30","4","<div style = ""font-size:60px;""> + </div>","null","","","","","","","","","","",""
"","null","learning_trial","html-keyboard-response","113","348856","0.0-3.0-1.53","30","4","
    <div class = 'grid-container'>
        <div class='header-text'> Friends </div>
        <div>
            Ella
            <img width='150' style='border:2px black solid;' src='stims/img/CFD-WF-203-229-N.jpg'>
        </div>
        <div> &nbsp; + &nbsp; </div>
        <div>
            Andrew
            <img width='150' style='border:2px black solid;' src='stims/img/CFD-AM-220-134-N.jpg'>
        </div>
        <div class='header-text'> &nbsp; </div>
    </div>
    ","null","3","true","2","stims/img/CFD-WF-203-229-N.jpg","Ella","3","stims/img/CFD-AM-220-134-N.jpg","Andrew","","",""
"","null","fixation","html-keyboard-response","114","349360","0.0-3.0-0.54","30","4","<div style = ""font-size:60px;""> + </div>","null","","","","","","","","","","",""
"","null","learning_trial","html-keyboard-response","115","351867","0.0-3.0-1.54","30","4","
    <div class = 'grid-container'>
        <div class='header-text'> Friends </div>
        <div>
            Hailey
            <img width='150' style='border:2px black solid;' src='stims/img/CFD-LF-254-125-N.jpg'>
        </div>
        <div> &nbsp; + &nbsp; </div>
        <div>
            Daniel
            <img width='150' style='border:2px black solid;' src='stims/img/CFD-WM-245-123-N.jpg'>
        </div>
        <div class='header-text'> &nbsp; </div>
    </div>
    ","null","3","false","1","stims/img/CFD-WM-245-123-N.jpg","Daniel","8","stims/img/CFD-LF-254-125-N.jpg","Hailey","","",""
"","null","fixation","html-keyboard-response","116","352373","0.0-3.0-0.55","30","4","<div style = ""font-size:60px;""> + </div>","null","","","","","","","","","","",""
"","null","learning_trial","html-keyboard-response","117","354880","0.0-3.0-1.55","30","4","
    <div class = 'grid-container'>
        <div class='header-text'> Friends </div>
        <div>
            Andrew
            <img width='150' style='border:2px black solid;' src='stims/img/CFD-AM-220-134-N.jpg'>
        </div>
        <div> &nbsp; + &nbsp; </div>
        <div>
            Jeremiah
            <img width='150' style='border:2px black solid;' src='stims/img/CFD-BM-205-001-N.jpg'>
        </div>
        <div class='header-text'> &nbsp; </div>
    </div>
    ","null","3","true","3","stims/img/CFD-AM-220-134-N.jpg","Andrew","5","stims/img/CFD-BM-205-001-N.jpg","Jeremiah","","",""
"","null","fixation","html-keyboard-response","118","355387","0.0-3.0-0.56","30","4","<div style = ""font-size:60px;""> + </div>","null","","","","","","","","","","",""
"","null","learning_trial","html-keyboard-response","119","357893","0.0-3.0-1.56","30","4","
    <div class = 'grid-container'>
        <div class='header-text'> Friends </div>
        <div>
            Jeremiah
            <img width='150' style='border:2px black solid;' src='stims/img/CFD-BM-205-001-N.jpg'>
        </div>
        <div> &nbsp; + &nbsp; </div>
        <div>
            Victoria
            <img width='150' style='border:2px black solid;' src='stims/img/CFD-WF-247-065-N.jpg'>
        </div>
        <div class='header-text'> &nbsp; </div>
    </div>
    ","null","3","false","4","stims/img/CFD-WF-247-065-N.jpg","Victoria","5","stims/img/CFD-BM-205-001-N.jpg","Jeremiah","","",""
"","null","fixation","html-keyboard-response","120","358399","0.0-3.0-0.57","30","4","<div style = ""font-size:60px;""> + </div>","null","","","","","","","","","","",""
"","null","learning_trial","html-keyboard-response","121","360906","0.0-3.0-1.57","30","4","
    <div class = 'grid-container'>
        <div class='header-text'> Friends </div>
        <div>
            Ethan
            <img width='150' style='border:2px black solid;' src='stims/img/CFD-LM-247-095-N.jpg'>
        </div>
        <div> &nbsp; + &nbsp; </div>
        <div>
            Elaine
            <img width='150' style='border:2px black solid;' src='stims/img/CFD-AF-224-026-N.jpg'>
        </div>
        <div class='header-text'> &nbsp; </div>
    </div>
    ","null","3","false","6","stims/img/CFD-AF-224-026-N.jpg","Elaine","7","stims/img/CFD-LM-247-095-N.jpg","Ethan","","",""
"","null","fixation","html-keyboard-response","122","361412","0.0-3.0-0.58","30","4","<div style = ""font-size:60px;""> + </div>","null","","","","","","","","","","",""
"","null","learning_trial","html-keyboard-response","123","363919","0.0-3.0-1.58","30","4","
    <div class = 'grid-container'>
        <div class='header-text'> Friends </div>
        <div>
            Nathaniel
            <img width='150' style='border:2px black solid;' src='stims/img/CFD-BM-226-276-N.jpg'>
        </div>
        <div> &nbsp; + &nbsp; </div>
        <div>
            Gabriela
            <img width='150' style='border:2px black solid;' src='stims/img/CFD-LF-223-064-N.jpg'>
        </div>
        <div class='header-text'> &nbsp; </div>
    </div>
    ","null","3","false","12","stims/img/CFD-LF-223-064-N.jpg","Gabriela","13","stims/img/CFD-BM-226-276-N.jpg","Nathaniel","","",""
"","null","fixation","html-keyboard-response","124","364421","0.0-3.0-0.59","30","4","<div style = ""font-size:60px;""> + </div>","null","","","","","","","","","","",""
"","null","learning_trial","html-keyboard-response","125","366928","0.0-3.0-1.59","30","4","
    <div class = 'grid-container'>
        <div class='header-text'> Friends </div>
        <div>
            Ethan
            <img width='150' style='border:2px black solid;' src='stims/img/CFD-LM-247-095-N.jpg'>
        </div>
        <div> &nbsp; + &nbsp; </div>
        <div>
            Jeremiah
            <img width='150' style='border:2px black solid;' src='stims/img/CFD-BM-205-001-N.jpg'>
        </div>
        <div class='header-text'> &nbsp; </div>
    </div>
    ","null","3","false","5","stims/img/CFD-BM-205-001-N.jpg","Jeremiah","7","stims/img/CFD-LM-247-095-N.jpg","Ethan","","",""
"","null","fixation","html-keyboard-response","126","367435","0.0-3.0-0.60","30","4","<div style = ""font-size:60px;""> + </div>","null","","","","","","","","","","",""
"","null","learning_trial","html-keyboard-response","127","369937","0.0-3.0-1.60","30","4","
    <div class = 'grid-container'>
        <div class='header-text'> Friends </div>
        <div>
            Ella
            <img width='150' style='border:2px black solid;' src='stims/img/CFD-WF-203-229-N.jpg'>
        </div>
        <div> &nbsp; + &nbsp; </div>
        <div>
            Victoria
            <img width='150' style='border:2px black solid;' src='stims/img/CFD-WF-247-065-N.jpg'>
        </div>
        <div class='header-text'> &nbsp; </div>
    </div>
    ","null","3","true","2","stims/img/CFD-WF-203-229-N.jpg","Ella","4","stims/img/CFD-WF-247-065-N.jpg","Victoria","","",""
"","null","fixation","html-keyboard-response","128","370443","0.0-3.0-0.61","30","4","<div style = ""font-size:60px;""> + </div>","null","","","","","","","","","","",""
"","null","learning_trial","html-keyboard-response","129","372946","0.0-3.0-1.61","30","4","
    <div class = 'grid-container'>
        <div class='header-text'> Friends </div>
        <div>
            Hailey
            <img width='150' style='border:2px black solid;' src='stims/img/CFD-LF-254-125-N.jpg'>
        </div>
        <div> &nbsp; + &nbsp; </div>
        <div>
            Kayla
            <img width='150' style='border:2px black solid;' src='stims/img/CFD-BF-222-240-N.jpg'>
        </div>
        <div class='header-text'> &nbsp; </div>
    </div>
    ","null","3","true","8","stims/img/CFD-LF-254-125-N.jpg","Hailey","10","stims/img/CFD-BF-222-240-N.jpg","Kayla","","",""
"","null","fixation","html-keyboard-response","130","373452","0.0-3.0-0.62","30","4","<div style = ""font-size:60px;""> + </div>","null","","","","","","","","","","",""
"","null","learning_trial","html-keyboard-response","131","375959","0.0-3.0-1.62","30","4","
    <div class = 'grid-container'>
        <div class='header-text'> Friends </div>
        <div>
            Gabriela
            <img width='150' style='border:2px black solid;' src='stims/img/CFD-LF-223-064-N.jpg'>
        </div>
        <div> &nbsp; + &nbsp; </div>
        <div>
            Kayla
            <img width='150' style='border:2px black solid;' src='stims/img/CFD-BF-222-240-N.jpg'>
        </div>
        <div class='header-text'> &nbsp; </div>
    </div>
    ","null","3","false","10","stims/img/CFD-BF-222-240-N.jpg","Kayla","12","stims/img/CFD-LF-223-064-N.jpg","Gabriela","","",""
"","null","fixation","html-keyboard-response","132","376465","0.0-3.0-0.63","30","4","<div style = ""font-size:60px;""> + </div>","null","","","","","","","","","","",""
"","null","learning_trial","html-keyboard-response","133","378970","0.0-3.0-1.63","30","4","
    <div class = 'grid-container'>
        <div class='header-text'> Friends </div>
        <div>
            Matthew
            <img width='150' style='border:2px black solid;' src='stims/img/CFD-LM-200-045-N.jpg'>
        </div>
        <div> &nbsp; + &nbsp; </div>
        <div>
            Nathaniel
            <img width='150' style='border:2px black solid;' src='stims/img/CFD-BM-226-276-N.jpg'>
        </div>
        <div class='header-text'> &nbsp; </div>
    </div>
    ","null","3","true","11","stims/img/CFD-LM-200-045-N.jpg","Matthew","13","stims/img/CFD-BM-226-276-N.jpg","Nathaniel","","",""
"","null","fixation","html-keyboard-response","134","379472","0.0-3.0-0.64","30","4","<div style = ""font-size:60px;""> + </div>","null","","","","","","","","","","",""
"","null","learning_trial","html-keyboard-response","135","381979","0.0-3.0-1.64","30","4","
    <div class = 'grid-container'>
        <div class='header-text'> Friends </div>
        <div>
            Gabriela
            <img width='150' style='border:2px black solid;' src='stims/img/CFD-LF-223-064-N.jpg'>
        </div>
        <div> &nbsp; + &nbsp; </div>
        <div>
            Matthew
            <img width='150' style='border:2px black solid;' src='stims/img/CFD-LM-200-045-N.jpg'>
        </div>
        <div class='header-text'> &nbsp; </div>
    </div>
    ","null","3","false","11","stims/img/CFD-LM-200-045-N.jpg","Matthew","12","stims/img/CFD-LF-223-064-N.jpg","Gabriela","","",""
"","null","fixation","html-keyboard-response","136","382485","0.0-3.0-0.65","30","4","<div style = ""font-size:60px;""> + </div>","null","","","","","","","","","","",""
"","null","learning_trial","html-keyboard-response","137","384990","0.0-3.0-1.65","30","4","
    <div class = 'grid-container'>
        <div class='header-text'> Friends </div>
        <div>
            Daniel
            <img width='150' style='border:2px black solid;' src='stims/img/CFD-WM-245-123-N.jpg'>
        </div>
        <div> &nbsp; + &nbsp; </div>
        <div>
            Ella
            <img width='150' style='border:2px black solid;' src='stims/img/CFD-WF-203-229-N.jpg'>
        </div>
        <div class='header-text'> &nbsp; </div>
    </div>
    ","null","3","true","1","stims/img/CFD-WM-245-123-N.jpg","Daniel","2","stims/img/CFD-WF-203-229-N.jpg","Ella","","",""
"","null","fixation","html-keyboard-response","138","385497","0.0-3.0-0.66","30","4","<div style = ""font-size:60px;""> + </div>","null","","","","","","","","","","",""
"","null","learning_trial","html-keyboard-response","139","388004","0.0-3.0-1.66","30","4","
    <div class = 'grid-container'>
        <div class='header-text'> Friends </div>
        <div>
            Liam
            <img width='150' style='border:2px black solid;' src='stims/img/CFD-WM-208-068-N.jpg'>
        </div>
        <div> &nbsp; + &nbsp; </div>
        <div>
            Matthew
            <img width='150' style='border:2px black solid;' src='stims/img/CFD-LM-200-045-N.jpg'>
        </div>
        <div class='header-text'> &nbsp; </div>
    </div>
    ","null","3","true","9","stims/img/CFD-WM-208-068-N.jpg","Liam","11","stims/img/CFD-LM-200-045-N.jpg","Matthew","","",""
"","null","fixation","html-keyboard-response","140","388511","0.0-3.0-0.67","30","4","<div style = ""font-size:60px;""> + </div>","null","","","","","","","","","","",""
"","null","learning_trial","html-keyboard-response","141","391017","0.0-3.0-1.67","30","4","
    <div class = 'grid-container'>
        <div class='header-text'> Friends </div>
        <div>
            Victoria
            <img width='150' style='border:2px black solid;' src='stims/img/CFD-WF-247-065-N.jpg'>
        </div>
        <div> &nbsp; + &nbsp; </div>
        <div>
            Elaine
            <img width='150' style='border:2px black solid;' src='stims/img/CFD-AF-224-026-N.jpg'>
        </div>
        <div class='header-text'> &nbsp; </div>
    </div>
    ","null","3","true","4","stims/img/CFD-WF-247-065-N.jpg","Victoria","6","stims/img/CFD-AF-224-026-N.jpg","Elaine","","",""
"","1630","break","html-keyboard-response","142","392649","0.0-3.0-2.67-0.67","30","4","If you'd like to take a break before continuing, 
    please do so now. <p>To continue, please press the spacebar.</p>"," ","","","","","","","","","","",""
"","null","fixation","html-keyboard-response","143","393154","0.0-3.0-0.68","30","4","<div style = ""font-size:60px;""> + </div>","null","","","","","","","","","","",""
"","null","learning_trial","html-keyboard-response","144","395662","0.0-3.0-1.68","30","4","
    <div class = 'grid-container'>
        <div class='header-text'> Friends </div>
        <div>
            Matthew
            <img width='150' style='border:2px black solid;' src='stims/img/CFD-LM-200-045-N.jpg'>
        </div>
        <div> &nbsp; + &nbsp; </div>
        <div>
            Liam
            <img width='150' style='border:2px black solid;' src='stims/img/CFD-WM-208-068-N.jpg'>
        </div>
        <div class='header-text'> &nbsp; </div>
    </div>
    ","null","4","false","9","stims/img/CFD-WM-208-068-N.jpg","Liam","11","stims/img/CFD-LM-200-045-N.jpg","Matthew","","",""
"","null","fixation","html-keyboard-response","145","396165","0.0-3.0-0.69","30","4","<div style = ""font-size:60px;""> + </div>","null","","","","","","","","","","",""
"","null","learning_trial","html-keyboard-response","146","398671","0.0-3.0-1.69","30","4","
    <div class = 'grid-container'>
        <div class='header-text'> Friends </div>
        <div>
            Hailey
            <img width='150' style='border:2px black solid;' src='stims/img/CFD-LF-254-125-N.jpg'>
        </div>
        <div> &nbsp; + &nbsp; </div>
        <div>
            Daniel
            <img width='150' style='border:2px black solid;' src='stims/img/CFD-WM-245-123-N.jpg'>
        </div>
        <div class='header-text'> &nbsp; </div>
    </div>
    ","null","4","false","1","stims/img/CFD-WM-245-123-N.jpg","Daniel","8","stims/img/CFD-LF-254-125-N.jpg","Hailey","","",""
"","null","fixation","html-keyboard-response","147","399178","0.0-3.0-0.70","30","4","<div style = ""font-size:60px;""> + </div>","null","","","","","","","","","","",""
"","null","learning_trial","html-keyboard-response","148","401685","0.0-3.0-1.70","30","4","
    <div class = 'grid-container'>
        <div class='header-text'> Friends </div>
        <div>
            Victoria
            <img width='150' style='border:2px black solid;' src='stims/img/CFD-WF-247-065-N.jpg'>
        </div>
        <div> &nbsp; + &nbsp; </div>
        <div>
            Jeremiah
            <img width='150' style='border:2px black solid;' src='stims/img/CFD-BM-205-001-N.jpg'>
        </div>
        <div class='header-text'> &nbsp; </div>
    </div>
    ","null","4","true","4","stims/img/CFD-WF-247-065-N.jpg","Victoria","5","stims/img/CFD-BM-205-001-N.jpg","Jeremiah","","",""
"","null","fixation","html-keyboard-response","149","402191","0.0-3.0-0.71","30","4","<div style = ""font-size:60px;""> + </div>","null","","","","","","","","","","",""
"","null","learning_trial","html-keyboard-response","150","404698","0.0-3.0-1.71","30","4","
    <div class = 'grid-container'>
        <div class='header-text'> Friends </div>
        <div>
            Elaine
            <img width='150' style='border:2px black solid;' src='stims/img/CFD-AF-224-026-N.jpg'>
        </div>
        <div> &nbsp; + &nbsp; </div>
        <div>
            Ethan
            <img width='150' style='border:2px black solid;' src='stims/img/CFD-LM-247-095-N.jpg'>
        </div>
        <div class='header-text'> &nbsp; </div>
    </div>
    ","null","4","true","6","stims/img/CFD-AF-224-026-N.jpg","Elaine","7","stims/img/CFD-LM-247-095-N.jpg","Ethan","","",""
"","null","fixation","html-keyboard-response","151","405204","0.0-3.0-0.72","30","4","<div style = ""font-size:60px;""> + </div>","null","","","","","","","","","","",""
"","null","learning_trial","html-keyboard-response","152","407711","0.0-3.0-1.72","30","4","
    <div class = 'grid-container'>
        <div class='header-text'> Friends </div>
        <div>
            Andrew
            <img width='150' style='border:2px black solid;' src='stims/img/CFD-AM-220-134-N.jpg'>
        </div>
        <div> &nbsp; + &nbsp; </div>
        <div>
            Victoria
            <img width='150' style='border:2px black solid;' src='stims/img/CFD-WF-247-065-N.jpg'>
        </div>
        <div class='header-text'> &nbsp; </div>
    </div>
    ","null","4","true","3","stims/img/CFD-AM-220-134-N.jpg","Andrew","4","stims/img/CFD-WF-247-065-N.jpg","Victoria","","",""
"","null","fixation","html-keyboard-response","153","408217","0.0-3.0-0.73","30","4","<div style = ""font-size:60px;""> + </div>","null","","","","","","","","","","",""
"","null","learning_trial","html-keyboard-response","154","410724","0.0-3.0-1.73","30","4","
    <div class = 'grid-container'>
        <div class='header-text'> Friends </div>
        <div>
            Ella
            <img width='150' style='border:2px black solid;' src='stims/img/CFD-WF-203-229-N.jpg'>
        </div>
        <div> &nbsp; + &nbsp; </div>
        <div>
            Victoria
            <img width='150' style='border:2px black solid;' src='stims/img/CFD-WF-247-065-N.jpg'>
        </div>
        <div class='header-text'> &nbsp; </div>
    </div>
    ","null","4","true","2","stims/img/CFD-WF-203-229-N.jpg","Ella","4","stims/img/CFD-WF-247-065-N.jpg","Victoria","","",""
"","null","fixation","html-keyboard-response","155","411226","0.0-3.0-0.74","30","4","<div style = ""font-size:60px;""> + </div>","null","","","","","","","","","","",""
"","null","learning_trial","html-keyboard-response","156","413733","0.0-3.0-1.74","30","4","
    <div class = 'grid-container'>
        <div class='header-text'> Friends </div>
        <div>
            Gabriela
            <img width='150' style='border:2px black solid;' src='stims/img/CFD-LF-223-064-N.jpg'>
        </div>
        <div> &nbsp; + &nbsp; </div>
        <div>
            Kayla
            <img width='150' style='border:2px black solid;' src='stims/img/CFD-BF-222-240-N.jpg'>
        </div>
        <div class='header-text'> &nbsp; </div>
    </div>
    ","null","4","false","10","stims/img/CFD-BF-222-240-N.jpg","Kayla","12","stims/img/CFD-LF-223-064-N.jpg","Gabriela","","",""
"","null","fixation","html-keyboard-response","157","414240","0.0-3.0-0.75","30","4","<div style = ""font-size:60px;""> + </div>","null","","","","","","","","","","",""
"","null","learning_trial","html-keyboard-response","158","416746","0.0-3.0-1.75","30","4","
    <div class = 'grid-container'>
        <div class='header-text'> Friends </div>
        <div>
            Andrew
            <img width='150' style='border:2px black solid;' src='stims/img/CFD-AM-220-134-N.jpg'>
        </div>
        <div> &nbsp; + &nbsp; </div>
        <div>
            Jeremiah
            <img width='150' style='border:2px black solid;' src='stims/img/CFD-BM-205-001-N.jpg'>
        </div>
        <div class='header-text'> &nbsp; </div>
    </div>
    ","null","4","true","3","stims/img/CFD-AM-220-134-N.jpg","Andrew","5","stims/img/CFD-BM-205-001-N.jpg","Jeremiah","","",""
"","null","fixation","html-keyboard-response","159","417252","0.0-3.0-0.76","30","4","<div style = ""font-size:60px;""> + </div>","null","","","","","","","","","","",""
"","null","learning_trial","html-keyboard-response","160","419756","0.0-3.0-1.76","30","4","
    <div class = 'grid-container'>
        <div class='header-text'> Friends </div>
        <div>
            Ethan
            <img width='150' style='border:2px black solid;' src='stims/img/CFD-LM-247-095-N.jpg'>
        </div>
        <div> &nbsp; + &nbsp; </div>
        <div>
            Jeremiah
            <img width='150' style='border:2px black solid;' src='stims/img/CFD-BM-205-001-N.jpg'>
        </div>
        <div class='header-text'> &nbsp; </div>
    </div>
    ","null","4","false","5","stims/img/CFD-BM-205-001-N.jpg","Jeremiah","7","stims/img/CFD-LM-247-095-N.jpg","Ethan","","",""
"","null","fixation","html-keyboard-response","161","420262","0.0-3.0-0.77","30","4","<div style = ""font-size:60px;""> + </div>","null","","","","","","","","","","",""
"","null","learning_trial","html-keyboard-response","162","422769","0.0-3.0-1.77","30","4","
    <div class = 'grid-container'>
        <div class='header-text'> Friends </div>
        <div>
            Daniel
            <img width='150' style='border:2px black solid;' src='stims/img/CFD-WM-245-123-N.jpg'>
        </div>
        <div> &nbsp; + &nbsp; </div>
        <div>
            Ella
            <img width='150' style='border:2px black solid;' src='stims/img/CFD-WF-203-229-N.jpg'>
        </div>
        <div class='header-text'> &nbsp; </div>
    </div>
    ","null","4","true","1","stims/img/CFD-WM-245-123-N.jpg","Daniel","2","stims/img/CFD-WF-203-229-N.jpg","Ella","","",""
"","null","fixation","html-keyboard-response","163","423275","0.0-3.0-0.78","30","4","<div style = ""font-size:60px;""> + </div>","null","","","","","","","","","","",""
"","null","learning_trial","html-keyboard-response","164","425780","0.0-3.0-1.78","30","4","
    <div class = 'grid-container'>
        <div class='header-text'> Friends </div>
        <div>
            Andrew
            <img width='150' style='border:2px black solid;' src='stims/img/CFD-AM-220-134-N.jpg'>
        </div>
        <div> &nbsp; + &nbsp; </div>
        <div>
            Ella
            <img width='150' style='border:2px black solid;' src='stims/img/CFD-WF-203-229-N.jpg'>
        </div>
        <div class='header-text'> &nbsp; </div>
    </div>
    ","null","4","false","2","stims/img/CFD-WF-203-229-N.jpg","Ella","3","stims/img/CFD-AM-220-134-N.jpg","Andrew","","",""
"","null","fixation","html-keyboard-response","165","426286","0.0-3.0-0.79","30","4","<div style = ""font-size:60px;""> + </div>","null","","","","","","","","","","",""
"","null","learning_trial","html-keyboard-response","166","428793","0.0-3.0-1.79","30","4","
    <div class = 'grid-container'>
        <div class='header-text'> Friends </div>
        <div>
            Hailey
            <img width='150' style='border:2px black solid;' src='stims/img/CFD-LF-254-125-N.jpg'>
        </div>
        <div> &nbsp; + &nbsp; </div>
        <div>
            Kayla
            <img width='150' style='border:2px black solid;' src='stims/img/CFD-BF-222-240-N.jpg'>
        </div>
        <div class='header-text'> &nbsp; </div>
    </div>
    ","null","4","true","8","stims/img/CFD-LF-254-125-N.jpg","Hailey","10","stims/img/CFD-BF-222-240-N.jpg","Kayla","","",""
"","null","fixation","html-keyboard-response","167","429300","0.0-3.0-0.80","30","4","<div style = ""font-size:60px;""> + </div>","null","","","","","","","","","","",""
"","null","learning_trial","html-keyboard-response","168","431807","0.0-3.0-1.80","30","4","
    <div class = 'grid-container'>
        <div class='header-text'> Friends </div>
        <div>
            Matthew
            <img width='150' style='border:2px black solid;' src='stims/img/CFD-LM-200-045-N.jpg'>
        </div>
        <div> &nbsp; + &nbsp; </div>
        <div>
            Nathaniel
            <img width='150' style='border:2px black solid;' src='stims/img/CFD-BM-226-276-N.jpg'>
        </div>
        <div class='header-text'> &nbsp; </div>
    </div>
    ","null","4","true","11","stims/img/CFD-LM-200-045-N.jpg","Matthew","13","stims/img/CFD-BM-226-276-N.jpg","Nathaniel","","",""
"","null","fixation","html-keyboard-response","169","432313","0.0-3.0-0.81","30","4","<div style = ""font-size:60px;""> + </div>","null","","","","","","","","","","",""
"","null","learning_trial","html-keyboard-response","170","434820","0.0-3.0-1.81","30","4","
    <div class = 'grid-container'>
        <div class='header-text'> Friends </div>
        <div>
            Nathaniel
            <img width='150' style='border:2px black solid;' src='stims/img/CFD-BM-226-276-N.jpg'>
        </div>
        <div> &nbsp; + &nbsp; </div>
        <div>
            Gabriela
            <img width='150' style='border:2px black solid;' src='stims/img/CFD-LF-223-064-N.jpg'>
        </div>
        <div class='header-text'> &nbsp; </div>
    </div>
    ","null","4","false","12","stims/img/CFD-LF-223-064-N.jpg","Gabriela","13","stims/img/CFD-BM-226-276-N.jpg","Nathaniel","","",""
"","null","fixation","html-keyboard-response","171","435327","0.0-3.0-0.82","30","4","<div style = ""font-size:60px;""> + </div>","null","","","","","","","","","","",""
"","null","learning_trial","html-keyboard-response","172","437833","0.0-3.0-1.82","30","4","
    <div class = 'grid-container'>
        <div class='header-text'> Friends </div>
        <div>
            Hailey
            <img width='150' style='border:2px black solid;' src='stims/img/CFD-LF-254-125-N.jpg'>
        </div>
        <div> &nbsp; + &nbsp; </div>
        <div>
            Liam
            <img width='150' style='border:2px black solid;' src='stims/img/CFD-WM-208-068-N.jpg'>
        </div>
        <div class='header-text'> &nbsp; </div>
    </div>
    ","null","4","true","8","stims/img/CFD-LF-254-125-N.jpg","Hailey","9","stims/img/CFD-WM-208-068-N.jpg","Liam","","",""
"","null","fixation","html-keyboard-response","173","438340","0.0-3.0-0.83","30","4","<div style = ""font-size:60px;""> + </div>","null","","","","","","","","","","",""
"","null","learning_trial","html-keyboard-response","174","440847","0.0-3.0-1.83","30","4","
    <div class = 'grid-container'>
        <div class='header-text'> Friends </div>
        <div>
            Gabriela
            <img width='150' style='border:2px black solid;' src='stims/img/CFD-LF-223-064-N.jpg'>
        </div>
        <div> &nbsp; + &nbsp; </div>
        <div>
            Matthew
            <img width='150' style='border:2px black solid;' src='stims/img/CFD-LM-200-045-N.jpg'>
        </div>
        <div class='header-text'> &nbsp; </div>
    </div>
    ","null","4","false","11","stims/img/CFD-LM-200-045-N.jpg","Matthew","12","stims/img/CFD-LF-223-064-N.jpg","Gabriela","","",""
"","null","fixation","html-keyboard-response","175","441353","0.0-3.0-0.84","30","4","<div style = ""font-size:60px;""> + </div>","null","","","","","","","","","","",""
"","null","learning_trial","html-keyboard-response","176","443861","0.0-3.0-1.84","30","4","
    <div class = 'grid-container'>
        <div class='header-text'> Friends </div>
        <div>
            Elaine
            <img width='150' style='border:2px black solid;' src='stims/img/CFD-AF-224-026-N.jpg'>
        </div>
        <div> &nbsp; + &nbsp; </div>
        <div>
            Victoria
            <img width='150' style='border:2px black solid;' src='stims/img/CFD-WF-247-065-N.jpg'>
        </div>
        <div class='header-text'> &nbsp; </div>
    </div>
    ","null","4","false","4","stims/img/CFD-WF-247-065-N.jpg","Victoria","6","stims/img/CFD-AF-224-026-N.jpg","Elaine","","",""
"","1728","break","html-keyboard-response","177","445590","0.0-3.0-2.84-0.84","30","4","If you'd like to take a break before continuing, 
    please do so now. <p>To continue, please press the spacebar.</p>"," ","","","","","","","","","","",""
"","null","fixation","html-keyboard-response","178","446095","0.0-3.0-0.85","30","4","<div style = ""font-size:60px;""> + </div>","null","","","","","","","","","","",""
"","null","learning_trial","html-keyboard-response","179","448602","0.0-3.0-1.85","30","4","
    <div class = 'grid-container'>
        <div class='header-text'> Friends </div>
        <div>
            Ella
            <img width='150' style='border:2px black solid;' src='stims/img/CFD-WF-203-229-N.jpg'>
        </div>
        <div> &nbsp; + &nbsp; </div>
        <div>
            Victoria
            <img width='150' style='border:2px black solid;' src='stims/img/CFD-WF-247-065-N.jpg'>
        </div>
        <div class='header-text'> &nbsp; </div>
    </div>
    ","null","5","true","2","stims/img/CFD-WF-203-229-N.jpg","Ella","4","stims/img/CFD-WF-247-065-N.jpg","Victoria","","",""
"","null","fixation","html-keyboard-response","180","449108","0.0-3.0-0.86","30","4","<div style = ""font-size:60px;""> + </div>","null","","","","","","","","","","",""
"","null","learning_trial","html-keyboard-response","181","451614","0.0-3.0-1.86","30","4","
    <div class = 'grid-container'>
        <div class='header-text'> Friends </div>
        <div>
            Gabriela
            <img width='150' style='border:2px black solid;' src='stims/img/CFD-LF-223-064-N.jpg'>
        </div>
        <div> &nbsp; + &nbsp; </div>
        <div>
            Matthew
            <img width='150' style='border:2px black solid;' src='stims/img/CFD-LM-200-045-N.jpg'>
        </div>
        <div class='header-text'> &nbsp; </div>
    </div>
    ","null","5","false","11","stims/img/CFD-LM-200-045-N.jpg","Matthew","12","stims/img/CFD-LF-223-064-N.jpg","Gabriela","","",""
"","null","fixation","html-keyboard-response","182","452121","0.0-3.0-0.87","30","4","<div style = ""font-size:60px;""> + </div>","null","","","","","","","","","","",""
"","null","learning_trial","html-keyboard-response","183","454628","0.0-3.0-1.87","30","4","
    <div class = 'grid-container'>
        <div class='header-text'> Friends </div>
        <div>
            Hailey
            <img width='150' style='border:2px black solid;' src='stims/img/CFD-LF-254-125-N.jpg'>
        </div>
        <div> &nbsp; + &nbsp; </div>
        <div>
            Liam
            <img width='150' style='border:2px black solid;' src='stims/img/CFD-WM-208-068-N.jpg'>
        </div>
        <div class='header-text'> &nbsp; </div>
    </div>
    ","null","5","true","8","stims/img/CFD-LF-254-125-N.jpg","Hailey","9","stims/img/CFD-WM-208-068-N.jpg","Liam","","",""
"","null","fixation","html-keyboard-response","184","455134","0.0-3.0-0.88","30","4","<div style = ""font-size:60px;""> + </div>","null","","","","","","","","","","",""
"","null","learning_trial","html-keyboard-response","185","457642","0.0-3.0-1.88","30","4","
    <div class = 'grid-container'>
        <div class='header-text'> Friends </div>
        <div>
            Ethan
            <img width='150' style='border:2px black solid;' src='stims/img/CFD-LM-247-095-N.jpg'>
        </div>
        <div> &nbsp; + &nbsp; </div>
        <div>
            Jeremiah
            <img width='150' style='border:2px black solid;' src='stims/img/CFD-BM-205-001-N.jpg'>
        </div>
        <div class='header-text'> &nbsp; </div>
    </div>
    ","null","5","false","5","stims/img/CFD-BM-205-001-N.jpg","Jeremiah","7","stims/img/CFD-LM-247-095-N.jpg","Ethan","","",""
"","null","fixation","html-keyboard-response","186","458144","0.0-3.0-0.89","30","4","<div style = ""font-size:60px;""> + </div>","null","","","","","","","","","","",""
"","null","learning_trial","html-keyboard-response","187","460651","0.0-3.0-1.89","30","4","
    <div class = 'grid-container'>
        <div class='header-text'> Friends </div>
        <div>
            Daniel
            <img width='150' style='border:2px black solid;' src='stims/img/CFD-WM-245-123-N.jpg'>
        </div>
        <div> &nbsp; + &nbsp; </div>
        <div>
            Hailey
            <img width='150' style='border:2px black solid;' src='stims/img/CFD-LF-254-125-N.jpg'>
        </div>
        <div class='header-text'> &nbsp; </div>
    </div>
    ","null","5","true","1","stims/img/CFD-WM-245-123-N.jpg","Daniel","8","stims/img/CFD-LF-254-125-N.jpg","Hailey","","",""
"","null","fixation","html-keyboard-response","188","461157","0.0-3.0-0.90","30","4","<div style = ""font-size:60px;""> + </div>","null","","","","","","","","","","",""
"","null","learning_trial","html-keyboard-response","189","463665","0.0-3.0-1.90","30","4","
    <div class = 'grid-container'>
        <div class='header-text'> Friends </div>
        <div>
            Jeremiah
            <img width='150' style='border:2px black solid;' src='stims/img/CFD-BM-205-001-N.jpg'>
        </div>
        <div> &nbsp; + &nbsp; </div>
        <div>
            Andrew
            <img width='150' style='border:2px black solid;' src='stims/img/CFD-AM-220-134-N.jpg'>
        </div>
        <div class='header-text'> &nbsp; </div>
    </div>
    ","null","5","false","3","stims/img/CFD-AM-220-134-N.jpg","Andrew","5","stims/img/CFD-BM-205-001-N.jpg","Jeremiah","","",""
"","null","fixation","html-keyboard-response","190","464171","0.0-3.0-0.91","30","4","<div style = ""font-size:60px;""> + </div>","null","","","","","","","","","","",""
"","null","learning_trial","html-keyboard-response","191","466678","0.0-3.0-1.91","30","4","
    <div class = 'grid-container'>
        <div class='header-text'> Friends </div>
        <div>
            Gabriela
            <img width='150' style='border:2px black solid;' src='stims/img/CFD-LF-223-064-N.jpg'>
        </div>
        <div> &nbsp; + &nbsp; </div>
        <div>
            Nathaniel
            <img width='150' style='border:2px black solid;' src='stims/img/CFD-BM-226-276-N.jpg'>
        </div>
        <div class='header-text'> &nbsp; </div>
    </div>
    ","null","5","true","12","stims/img/CFD-LF-223-064-N.jpg","Gabriela","13","stims/img/CFD-BM-226-276-N.jpg","Nathaniel","","",""
"","null","fixation","html-keyboard-response","192","467184","0.0-3.0-0.92","30","4","<div style = ""font-size:60px;""> + </div>","null","","","","","","","","","","",""
"","null","learning_trial","html-keyboard-response","193","469688","0.0-3.0-1.92","30","4","
    <div class = 'grid-container'>
        <div class='header-text'> Friends </div>
        <div>
            Victoria
            <img width='150' style='border:2px black solid;' src='stims/img/CFD-WF-247-065-N.jpg'>
        </div>
        <div> &nbsp; + &nbsp; </div>
        <div>
            Jeremiah
            <img width='150' style='border:2px black solid;' src='stims/img/CFD-BM-205-001-N.jpg'>
        </div>
        <div class='header-text'> &nbsp; </div>
    </div>
    ","null","5","true","4","stims/img/CFD-WF-247-065-N.jpg","Victoria","5","stims/img/CFD-BM-205-001-N.jpg","Jeremiah","","",""
"","null","fixation","html-keyboard-response","194","470194","0.0-3.0-0.93","30","4","<div style = ""font-size:60px;""> + </div>","null","","","","","","","","","","",""
"","null","learning_trial","html-keyboard-response","195","472701","0.0-3.0-1.93","30","4","
    <div class = 'grid-container'>
        <div class='header-text'> Friends </div>
        <div>
            Elaine
            <img width='150' style='border:2px black solid;' src='stims/img/CFD-AF-224-026-N.jpg'>
        </div>
        <div> &nbsp; + &nbsp; </div>
        <div>
            Victoria
            <img width='150' style='border:2px black solid;' src='stims/img/CFD-WF-247-065-N.jpg'>
        </div>
        <div class='header-text'> &nbsp; </div>
    </div>
    ","null","5","false","4","stims/img/CFD-WF-247-065-N.jpg","Victoria","6","stims/img/CFD-AF-224-026-N.jpg","Elaine","","",""
"","null","fixation","html-keyboard-response","196","473207","0.0-3.0-0.94","30","4","<div style = ""font-size:60px;""> + </div>","null","","","","","","","","","","",""
"","null","learning_trial","html-keyboard-response","197","475714","0.0-3.0-1.94","30","4","
    <div class = 'grid-container'>
        <div class='header-text'> Friends </div>
        <div>
            Matthew
            <img width='150' style='border:2px black solid;' src='stims/img/CFD-LM-200-045-N.jpg'>
        </div>
        <div> &nbsp; + &nbsp; </div>
        <div>
            Nathaniel
            <img width='150' style='border:2px black solid;' src='stims/img/CFD-BM-226-276-N.jpg'>
        </div>
        <div class='header-text'> &nbsp; </div>
    </div>
    ","null","5","true","11","stims/img/CFD-LM-200-045-N.jpg","Matthew","13","stims/img/CFD-BM-226-276-N.jpg","Nathaniel","","",""
"","null","fixation","html-keyboard-response","198","476217","0.0-3.0-0.95","30","4","<div style = ""font-size:60px;""> + </div>","null","","","","","","","","","","",""
"","null","learning_trial","html-keyboard-response","199","478725","0.0-3.0-1.95","30","4","
    <div class = 'grid-container'>
        <div class='header-text'> Friends </div>
        <div>
            Hailey
            <img width='150' style='border:2px black solid;' src='stims/img/CFD-LF-254-125-N.jpg'>
        </div>
        <div> &nbsp; + &nbsp; </div>
        <div>
            Kayla
            <img width='150' style='border:2px black solid;' src='stims/img/CFD-BF-222-240-N.jpg'>
        </div>
        <div class='header-text'> &nbsp; </div>
    </div>
    ","null","5","true","8","stims/img/CFD-LF-254-125-N.jpg","Hailey","10","stims/img/CFD-BF-222-240-N.jpg","Kayla","","",""
"","null","fixation","html-keyboard-response","200","479231","0.0-3.0-0.96","30","4","<div style = ""font-size:60px;""> + </div>","null","","","","","","","","","","",""
"","null","learning_trial","html-keyboard-response","201","481738","0.0-3.0-1.96","30","4","
    <div class = 'grid-container'>
        <div class='header-text'> Friends </div>
        <div>
            Victoria
            <img width='150' style='border:2px black solid;' src='stims/img/CFD-WF-247-065-N.jpg'>
        </div>
        <div> &nbsp; + &nbsp; </div>
        <div>
            Andrew
            <img width='150' style='border:2px black solid;' src='stims/img/CFD-AM-220-134-N.jpg'>
        </div>
        <div class='header-text'> &nbsp; </div>
    </div>
    ","null","5","false","3","stims/img/CFD-AM-220-134-N.jpg","Andrew","4","stims/img/CFD-WF-247-065-N.jpg","Victoria","","",""
"","null","fixation","html-keyboard-response","202","482244","0.0-3.0-0.97","30","4","<div style = ""font-size:60px;""> + </div>","null","","","","","","","","","","",""
"","null","learning_trial","html-keyboard-response","203","484751","0.0-3.0-1.97","30","4","
    <div class = 'grid-container'>
        <div class='header-text'> Friends </div>
        <div>
            Ella
            <img width='150' style='border:2px black solid;' src='stims/img/CFD-WF-203-229-N.jpg'>
        </div>
        <div> &nbsp; + &nbsp; </div>
        <div>
            Daniel
            <img width='150' style='border:2px black solid;' src='stims/img/CFD-WM-245-123-N.jpg'>
        </div>
        <div class='header-text'> &nbsp; </div>
    </div>
    ","null","5","false","1","stims/img/CFD-WM-245-123-N.jpg","Daniel","2","stims/img/CFD-WF-203-229-N.jpg","Ella","","",""
"","null","fixation","html-keyboard-response","204","485257","0.0-3.0-0.98","30","4","<div style = ""font-size:60px;""> + </div>","null","","","","","","","","","","",""
"","null","learning_trial","html-keyboard-response","205","487764","0.0-3.0-1.98","30","4","
    <div class = 'grid-container'>
        <div class='header-text'> Friends </div>
        <div>
            Gabriela
            <img width='150' style='border:2px black solid;' src='stims/img/CFD-LF-223-064-N.jpg'>
        </div>
        <div> &nbsp; + &nbsp; </div>
        <div>
            Kayla
            <img width='150' style='border:2px black solid;' src='stims/img/CFD-BF-222-240-N.jpg'>
        </div>
        <div class='header-text'> &nbsp; </div>
    </div>
    ","null","5","false","10","stims/img/CFD-BF-222-240-N.jpg","Kayla","12","stims/img/CFD-LF-223-064-N.jpg","Gabriela","","",""
"","null","fixation","html-keyboard-response","206","488271","0.0-3.0-0.99","30","4","<div style = ""font-size:60px;""> + </div>","null","","","","","","","","","","",""
"","null","learning_trial","html-keyboard-response","207","490777","0.0-3.0-1.99","30","4","
    <div class = 'grid-container'>
        <div class='header-text'> Friends </div>
        <div>
            Liam
            <img width='150' style='border:2px black solid;' src='stims/img/CFD-WM-208-068-N.jpg'>
        </div>
        <div> &nbsp; + &nbsp; </div>
        <div>
            Matthew
            <img width='150' style='border:2px black solid;' src='stims/img/CFD-LM-200-045-N.jpg'>
        </div>
        <div class='header-text'> &nbsp; </div>
    </div>
    ","null","5","true","9","stims/img/CFD-WM-208-068-N.jpg","Liam","11","stims/img/CFD-LM-200-045-N.jpg","Matthew","","",""
"","null","fixation","html-keyboard-response","208","491284","0.0-3.0-0.100","30","4","<div style = ""font-size:60px;""> + </div>","null","","","","","","","","","","",""
"","null","learning_trial","html-keyboard-response","209","493791","0.0-3.0-1.100","30","4","
    <div class = 'grid-container'>
        <div class='header-text'> Friends </div>
        <div>
            Ethan
            <img width='150' style='border:2px black solid;' src='stims/img/CFD-LM-247-095-N.jpg'>
        </div>
        <div> &nbsp; + &nbsp; </div>
        <div>
            Elaine
            <img width='150' style='border:2px black solid;' src='stims/img/CFD-AF-224-026-N.jpg'>
        </div>
        <div class='header-text'> &nbsp; </div>
    </div>
    ","null","5","false","6","stims/img/CFD-AF-224-026-N.jpg","Elaine","7","stims/img/CFD-LM-247-095-N.jpg","Ethan","","",""
"","null","fixation","html-keyboard-response","210","494297","0.0-3.0-0.101","30","4","<div style = ""font-size:60px;""> + </div>","null","","","","","","","","","","",""
"","null","learning_trial","html-keyboard-response","211","496804","0.0-3.0-1.101","30","4","
    <div class = 'grid-container'>
        <div class='header-text'> Friends </div>
        <div>
            Ella
            <img width='150' style='border:2px black solid;' src='stims/img/CFD-WF-203-229-N.jpg'>
        </div>
        <div> &nbsp; + &nbsp; </div>
        <div>
            Andrew
            <img width='150' style='border:2px black solid;' src='stims/img/CFD-AM-220-134-N.jpg'>
        </div>
        <div class='header-text'> &nbsp; </div>
    </div>
    ","null","5","true","2","stims/img/CFD-WF-203-229-N.jpg","Ella","3","stims/img/CFD-AM-220-134-N.jpg","Andrew","","",""
"","1649","break","html-keyboard-response","212","498455","0.0-3.0-2.101-0.101","30","4","If you'd like to take a break before continuing, 
    please do so now. <p>To continue, please press the spacebar.</p>"," ","","","","","","","","","","",""
"","null","fixation","html-keyboard-response","213","498961","0.0-3.0-0.102","30","4","<div style = ""font-size:60px;""> + </div>","null","","","","","","","","","","",""
"","null","learning_trial","html-keyboard-response","214","501465","0.0-3.0-1.102","30","4","
    <div class = 'grid-container'>
        <div class='header-text'> Friends </div>
        <div>
            Kayla
            <img width='150' style='border:2px black solid;' src='stims/img/CFD-BF-222-240-N.jpg'>
        </div>
        <div> &nbsp; + &nbsp; </div>
        <div>
            Gabriela
            <img width='150' style='border:2px black solid;' src='stims/img/CFD-LF-223-064-N.jpg'>
        </div>
        <div class='header-text'> &nbsp; </div>
    </div>
    ","null","6","true","10","stims/img/CFD-BF-222-240-N.jpg","Kayla","12","stims/img/CFD-LF-223-064-N.jpg","Gabriela","","",""
"","null","fixation","html-keyboard-response","215","501972","0.0-3.0-0.103","30","4","<div style = ""font-size:60px;""> + </div>","null","","","","","","","","","","",""
"","null","learning_trial","html-keyboard-response","216","504479","0.0-3.0-1.103","30","4","
    <div class = 'grid-container'>
        <div class='header-text'> Friends </div>
        <div>
            Gabriela
            <img width='150' style='border:2px black solid;' src='stims/img/CFD-LF-223-064-N.jpg'>
        </div>
        <div> &nbsp; + &nbsp; </div>
        <div>
            Matthew
            <img width='150' style='border:2px black solid;' src='stims/img/CFD-LM-200-045-N.jpg'>
        </div>
        <div class='header-text'> &nbsp; </div>
    </div>
    ","null","6","false","11","stims/img/CFD-LM-200-045-N.jpg","Matthew","12","stims/img/CFD-LF-223-064-N.jpg","Gabriela","","",""
"","null","fixation","html-keyboard-response","217","504981","0.0-3.0-0.104","30","4","<div style = ""font-size:60px;""> + </div>","null","","","","","","","","","","",""
"","null","learning_trial","html-keyboard-response","218","507487","0.0-3.0-1.104","30","4","
    <div class = 'grid-container'>
        <div class='header-text'> Friends </div>
        <div>
            Daniel
            <img width='150' style='border:2px black solid;' src='stims/img/CFD-WM-245-123-N.jpg'>
        </div>
        <div> &nbsp; + &nbsp; </div>
        <div>
            Ella
            <img width='150' style='border:2px black solid;' src='stims/img/CFD-WF-203-229-N.jpg'>
        </div>
        <div class='header-text'> &nbsp; </div>
    </div>
    ","null","6","true","1","stims/img/CFD-WM-245-123-N.jpg","Daniel","2","stims/img/CFD-WF-203-229-N.jpg","Ella","","",""
"","null","fixation","html-keyboard-response","219","507989","0.0-3.0-0.105","30","4","<div style = ""font-size:60px;""> + </div>","null","","","","","","","","","","",""
"","null","learning_trial","html-keyboard-response","220","510495","0.0-3.0-1.105","30","4","
    <div class = 'grid-container'>
        <div class='header-text'> Friends </div>
        <div>
            Liam
            <img width='150' style='border:2px black solid;' src='stims/img/CFD-WM-208-068-N.jpg'>
        </div>
        <div> &nbsp; + &nbsp; </div>
        <div>
            Hailey
            <img width='150' style='border:2px black solid;' src='stims/img/CFD-LF-254-125-N.jpg'>
        </div>
        <div class='header-text'> &nbsp; </div>
    </div>
    ","null","6","false","8","stims/img/CFD-LF-254-125-N.jpg","Hailey","9","stims/img/CFD-WM-208-068-N.jpg","Liam","","",""
"","null","fixation","html-keyboard-response","221","511002","0.0-3.0-0.106","30","4","<div style = ""font-size:60px;""> + </div>","null","","","","","","","","","","",""
"","null","learning_trial","html-keyboard-response","222","513505","0.0-3.0-1.106","30","4","
    <div class = 'grid-container'>
        <div class='header-text'> Friends </div>
        <div>
            Elaine
            <img width='150' style='border:2px black solid;' src='stims/img/CFD-AF-224-026-N.jpg'>
        </div>
        <div> &nbsp; + &nbsp; </div>
        <div>
            Ethan
            <img width='150' style='border:2px black solid;' src='stims/img/CFD-LM-247-095-N.jpg'>
        </div>
        <div class='header-text'> &nbsp; </div>
    </div>
    ","null","6","true","6","stims/img/CFD-AF-224-026-N.jpg","Elaine","7","stims/img/CFD-LM-247-095-N.jpg","Ethan","","",""
"","null","fixation","html-keyboard-response","223","514011","0.0-3.0-0.107","30","4","<div style = ""font-size:60px;""> + </div>","null","","","","","","","","","","",""
"","null","learning_trial","html-keyboard-response","224","516516","0.0-3.0-1.107","30","4","
    <div class = 'grid-container'>
        <div class='header-text'> Friends </div>
        <div>
            Hailey
            <img width='150' style='border:2px black solid;' src='stims/img/CFD-LF-254-125-N.jpg'>
        </div>
        <div> &nbsp; + &nbsp; </div>
        <div>
            Daniel
            <img width='150' style='border:2px black solid;' src='stims/img/CFD-WM-245-123-N.jpg'>
        </div>
        <div class='header-text'> &nbsp; </div>
    </div>
    ","null","6","false","1","stims/img/CFD-WM-245-123-N.jpg","Daniel","8","stims/img/CFD-LF-254-125-N.jpg","Hailey","","",""
"","null","fixation","html-keyboard-response","225","517022","0.0-3.0-0.108","30","4","<div style = ""font-size:60px;""> + </div>","null","","","","","","","","","","",""
"","null","learning_trial","html-keyboard-response","226","519529","0.0-3.0-1.108","30","4","
    <div class = 'grid-container'>
        <div class='header-text'> Friends </div>
        <div>
            Kayla
            <img width='150' style='border:2px black solid;' src='stims/img/CFD-BF-222-240-N.jpg'>
        </div>
        <div> &nbsp; + &nbsp; </div>
        <div>
            Hailey
            <img width='150' style='border:2px black solid;' src='stims/img/CFD-LF-254-125-N.jpg'>
        </div>
        <div class='header-text'> &nbsp; </div>
    </div>
    ","null","6","false","8","stims/img/CFD-LF-254-125-N.jpg","Hailey","10","stims/img/CFD-BF-222-240-N.jpg","Kayla","","",""
"","null","fixation","html-keyboard-response","227","520035","0.0-3.0-0.109","30","4","<div style = ""font-size:60px;""> + </div>","null","","","","","","","","","","",""
"","null","learning_trial","html-keyboard-response","228","522542","0.0-3.0-1.109","30","4","
    <div class = 'grid-container'>
        <div class='header-text'> Friends </div>
        <div>
            Victoria
            <img width='150' style='border:2px black solid;' src='stims/img/CFD-WF-247-065-N.jpg'>
        </div>
        <div> &nbsp; + &nbsp; </div>
        <div>
            Ella
            <img width='150' style='border:2px black solid;' src='stims/img/CFD-WF-203-229-N.jpg'>
        </div>
        <div class='header-text'> &nbsp; </div>
    </div>
    ","null","6","false","2","stims/img/CFD-WF-203-229-N.jpg","Ella","4","stims/img/CFD-WF-247-065-N.jpg","Victoria","","",""
"","null","fixation","html-keyboard-response","229","523044","0.0-3.0-0.110","30","4","<div style = ""font-size:60px;""> + </div>","null","","","","","","","","","","",""
"","null","learning_trial","html-keyboard-response","230","525549","0.0-3.0-1.110","30","4","
    <div class = 'grid-container'>
        <div class='header-text'> Friends </div>
        <div>
            Jeremiah
            <img width='150' style='border:2px black solid;' src='stims/img/CFD-BM-205-001-N.jpg'>
        </div>
        <div> &nbsp; + &nbsp; </div>
        <div>
            Andrew
            <img width='150' style='border:2px black solid;' src='stims/img/CFD-AM-220-134-N.jpg'>
        </div>
        <div class='header-text'> &nbsp; </div>
    </div>
    ","null","6","false","3","stims/img/CFD-AM-220-134-N.jpg","Andrew","5","stims/img/CFD-BM-205-001-N.jpg","Jeremiah","","",""
"","null","fixation","html-keyboard-response","231","526057","0.0-3.0-0.111","30","4","<div style = ""font-size:60px;""> + </div>","null","","","","","","","","","","",""
"","null","learning_trial","html-keyboard-response","232","528559","0.0-3.0-1.111","30","4","
    <div class = 'grid-container'>
        <div class='header-text'> Friends </div>
        <div>
            Liam
            <img width='150' style='border:2px black solid;' src='stims/img/CFD-WM-208-068-N.jpg'>
        </div>
        <div> &nbsp; + &nbsp; </div>
        <div>
            Matthew
            <img width='150' style='border:2px black solid;' src='stims/img/CFD-LM-200-045-N.jpg'>
        </div>
        <div class='header-text'> &nbsp; </div>
    </div>
    ","null","6","true","9","stims/img/CFD-WM-208-068-N.jpg","Liam","11","stims/img/CFD-LM-200-045-N.jpg","Matthew","","",""
"","null","fixation","html-keyboard-response","233","529065","0.0-3.0-0.112","30","4","<div style = ""font-size:60px;""> + </div>","null","","","","","","","","","","",""
"","null","learning_trial","html-keyboard-response","234","531572","0.0-3.0-1.112","30","4","
    <div class = 'grid-container'>
        <div class='header-text'> Friends </div>
        <div>
            Victoria
            <img width='150' style='border:2px black solid;' src='stims/img/CFD-WF-247-065-N.jpg'>
        </div>
        <div> &nbsp; + &nbsp; </div>
        <div>
            Jeremiah
