"view_history","rt","trial_purpose","trial_type","trial_index","time_elapsed","internal_node_id","sub_id","bonus","stimulus","response","rep","display_left","from_id","from_face","from_name","to_id","to_face","to_name","friendship","correct","slider_start"
"[{""page_index"":0,""viewing_time"":2436}]","2437","confirm_correct","instructions","0","2436","0.0-0.0","21","3","","","","","","","","","","","","",""
"[{""page_index"":0,""viewing_time"":280190},{""page_index"":1,""viewing_time"":2184},{""page_index"":2,""viewing_time"":1983}]","284357","instructions","instructions","1","286787","0.0-1.0","21","3","","","","","","","","","","","","",""
"[{""page_index"":0,""viewing_time"":2697},{""page_index"":1,""viewing_time"":1466},{""page_index"":2,""viewing_time"":9850},{""page_index"":3,""viewing_time"":8017}]","22030","instructions","instructions","2","308819","0.0-2.0","21","3","","","","","","","","","","","","",""
"","null","fixation","html-keyboard-response","3","309327","0.0-3.0-0.0","21","3","<div style = ""font-size:60px;""> + </div>","null","","","","","","","","","","",""
"","null","learning_trial","html-keyboard-response","4","311834","0.0-3.0-1.0","21","3","
    <div class = 'grid-container'>
        <div class='header-text'> Friends </div>
        <div>
            Ayden
            <img width='150' style='border:2px black solid;' src='stims/img/CFD-BM-235-226-N.jpg'>
        </div>
        <div> &nbsp; + &nbsp; </div>
        <div>
            Christian
            <img width='150' style='border:2px black solid;' src='stims/img/CFD-BM-200-046-N.jpg'>
        </div>
        <div class='header-text'> &nbsp; </div>
    </div>
    ","null","0","false","1","stims/img/CFD-BM-200-046-N.jpg","Christian","8","stims/img/CFD-BM-235-226-N.jpg","Ayden","","",""
"","null","fixation","html-keyboard-response","5","312341","0.0-3.0-0.1","21","3","<div style = ""font-size:60px;""> + </div>","null","","","","","","","","","","",""
"","null","learning_trial","html-keyboard-response","6","314847","0.0-3.0-1.1","21","3","
    <div class = 'grid-container'>
        <div class='header-text'> Friends </div>
        <div>
            Lucas
            <img width='150' style='border:2px black solid;' src='stims/img/CFD-AM-244-222-N.jpg'>
        </div>
        <div> &nbsp; + &nbsp; </div>
        <div>
            Ava
            <img width='150' style='border:2px black solid;' src='stims/img/CFD-BF-244-231-N.jpg'>
        </div>
        <div class='header-text'> &nbsp; </div>
    </div>
    ","null","0","false","4","stims/img/CFD-BF-244-231-N.jpg","Ava","5","stims/img/CFD-AM-244-222-N.jpg","Lucas","","",""
"","null","fixation","html-keyboard-response","7","315352","0.0-3.0-0.2","21","3","<div style = ""font-size:60px;""> + </div>","null","","","","","","","","","","",""
"","null","learning_trial","html-keyboard-response","8","317861","0.0-3.0-1.2","21","3","
    <div class = 'grid-container'>
        <div class='header-text'> Friends </div>
        <div>
            Ava
            <img width='150' style='border:2px black solid;' src='stims/img/CFD-BF-244-231-N.jpg'>
        </div>
        <div> &nbsp; + &nbsp; </div>
        <div>
            Elizabeth
            <img width='150' style='border:2px black solid;' src='stims/img/CFD-WF-208-068-N.jpg'>
        </div>
        <div class='header-text'> &nbsp; </div>
    </div>
    ","null","0","false","2","stims/img/CFD-WF-208-068-N.jpg","Elizabeth","4","stims/img/CFD-BF-244-231-N.jpg","Ava","","",""
"","null","fixation","html-keyboard-response","9","318367","0.0-3.0-0.3","21","3","<div style = ""font-size:60px;""> + </div>","null","","","","","","","","","","",""
"","null","learning_trial","html-keyboard-response","10","320875","0.0-3.0-1.3","21","3","
    <div class = 'grid-container'>
        <div class='header-text'> Friends </div>
        <div>
            Ayden
            <img width='150' style='border:2px black solid;' src='stims/img/CFD-BM-235-226-N.jpg'>
        </div>
        <div> &nbsp; + &nbsp; </div>
        <div>
            Ethan
            <img width='150' style='border:2px black solid;' src='stims/img/CFD-AM-229-224-N.jpg'>
        </div>
        <div class='header-text'> &nbsp; </div>
    </div>
    ","null","0","true","8","stims/img/CFD-BM-235-226-N.jpg","Ayden","9","stims/img/CFD-AM-229-224-N.jpg","Ethan","","",""
"","null","fixation","html-keyboard-response","11","321380","0.0-3.0-0.4","21","3","<div style = ""font-size:60px;""> + </div>","null","","","","","","","","","","",""
"","null","learning_trial","html-keyboard-response","12","323886","0.0-3.0-1.4","21","3","
    <div class = 'grid-container'>
        <div class='header-text'> Friends </div>
        <div>
            Joseph
            <img width='150' style='border:2px black solid;' src='stims/img/CFD-LM-212-143-N.jpg'>
        </div>
        <div> &nbsp; + &nbsp; </div>
        <div>
            Olivia
            <img width='150' style='border:2px black solid;' src='stims/img/CFD-WF-231-099-N.jpg'>
        </div>
        <div class='header-text'> &nbsp; </div>
    </div>
    ","null","0","false","12","stims/img/CFD-WF-231-099-N.jpg","Olivia","13","stims/img/CFD-LM-212-143-N.jpg","Joseph","","",""
"","null","fixation","html-keyboard-response","13","324393","0.0-3.0-0.5","21","3","<div style = ""font-size:60px;""> + </div>","null","","","","","","","","","","",""
"","null","learning_trial","html-keyboard-response","14","326901","0.0-3.0-1.5","21","3","
    <div class = 'grid-container'>
        <div class='header-text'> Friends </div>
        <div>
            Vicky
            <img width='150' style='border:2px black solid;' src='stims/img/CFD-AF-229-160-N.jpg'>
        </div>
        <div> &nbsp; + &nbsp; </div>
        <div>
            Ayden
            <img width='150' style='border:2px black solid;' src='stims/img/CFD-BM-235-226-N.jpg'>
        </div>
        <div class='header-text'> &nbsp; </div>
    </div>
    ","null","0","false","8","stims/img/CFD-BM-235-226-N.jpg","Ayden","10","stims/img/CFD-AF-229-160-N.jpg","Vicky","","",""
"","null","fixation","html-keyboard-response","15","327407","0.0-3.0-0.6","21","3","<div style = ""font-size:60px;""> + </div>","null","","","","","","","","","","",""
"","null","learning_trial","html-keyboard-response","16","329914","0.0-3.0-1.6","21","3","
    <div class = 'grid-container'>
        <div class='header-text'> Friends </div>
        <div>
            Elizabeth
            <img width='150' style='border:2px black solid;' src='stims/img/CFD-WF-208-068-N.jpg'>
        </div>
        <div> &nbsp; + &nbsp; </div>
        <div>
            Camila
            <img width='150' style='border:2px black solid;' src='stims/img/CFD-LF-208-127-N.jpg'>
        </div>
        <div class='header-text'> &nbsp; </div>
    </div>
    ","null","0","true","2","stims/img/CFD-WF-208-068-N.jpg","Elizabeth","3","stims/img/CFD-LF-208-127-N.jpg","Camila","","",""
"","null","fixation","html-keyboard-response","17","330417","0.0-3.0-0.7","21","3","<div style = ""font-size:60px;""> + </div>","null","","","","","","","","","","",""
"","null","learning_trial","html-keyboard-response","18","332925","0.0-3.0-1.7","21","3","
    <div class = 'grid-container'>
        <div class='header-text'> Friends </div>
        <div>
            Ava
            <img width='150' style='border:2px black solid;' src='stims/img/CFD-BF-244-231-N.jpg'>
        </div>
        <div> &nbsp; + &nbsp; </div>
        <div>
            Camila
            <img width='150' style='border:2px black solid;' src='stims/img/CFD-LF-208-127-N.jpg'>
        </div>
        <div class='header-text'> &nbsp; </div>
    </div>
    ","null","0","false","3","stims/img/CFD-LF-208-127-N.jpg","Camila","4","stims/img/CFD-BF-244-231-N.jpg","Ava","","",""
"","null","fixation","html-keyboard-response","19","333430","0.0-3.0-0.8","21","3","<div style = ""font-size:60px;""> + </div>","null","","","","","","","","","","",""
"","null","learning_trial","html-keyboard-response","20","335937","0.0-3.0-1.8","21","3","
    <div class = 'grid-container'>
        <div class='header-text'> Friends </div>
        <div>
            Olivia
            <img width='150' style='border:2px black solid;' src='stims/img/CFD-WF-231-099-N.jpg'>
        </div>
        <div> &nbsp; + &nbsp; </div>
        <div>
            Vicky
            <img width='150' style='border:2px black solid;' src='stims/img/CFD-AF-229-160-N.jpg'>
        </div>
        <div class='header-text'> &nbsp; </div>
    </div>
    ","null","0","false","10","stims/img/CFD-AF-229-160-N.jpg","Vicky","12","stims/img/CFD-WF-231-099-N.jpg","Olivia","","",""
"","null","fixation","html-keyboard-response","21","336441","0.0-3.0-0.9","21","3","<div style = ""font-size:60px;""> + </div>","null","","","","","","","","","","",""
"","null","learning_trial","html-keyboard-response","22","338945","0.0-3.0-1.9","21","3","
    <div class = 'grid-container'>
        <div class='header-text'> Friends </div>
        <div>
            Henry
            <img width='150' style='border:2px black solid;' src='stims/img/CFD-WM-237-052-N.jpg'>
        </div>
        <div> &nbsp; + &nbsp; </div>
        <div>
            Valentina
            <img width='150' style='border:2px black solid;' src='stims/img/CFD-LF-212-066-N.jpg'>
        </div>
        <div class='header-text'> &nbsp; </div>
    </div>
    ","null","0","false","6","stims/img/CFD-LF-212-066-N.jpg","Valentina","7","stims/img/CFD-WM-237-052-N.jpg","Henry","","",""
"","null","fixation","html-keyboard-response","23","339451","0.0-3.0-0.10","21","3","<div style = ""font-size:60px;""> + </div>","null","","","","","","","","","","",""
"","null","learning_trial","html-keyboard-response","24","341957","0.0-3.0-1.10","21","3","
    <div class = 'grid-container'>
        <div class='header-text'> Friends </div>
        <div>
            Joseph
            <img width='150' style='border:2px black solid;' src='stims/img/CFD-LM-212-143-N.jpg'>
        </div>
        <div> &nbsp; + &nbsp; </div>
        <div>
            Madison
            <img width='150' style='border:2px black solid;' src='stims/img/CFD-BF-221-223-N.jpg'>
        </div>
        <div class='header-text'> &nbsp; </div>
    </div>
    ","null","0","false","11","stims/img/CFD-BF-221-223-N.jpg","Madison","13","stims/img/CFD-LM-212-143-N.jpg","Joseph","","",""
"","null","fixation","html-keyboard-response","25","342463","0.0-3.0-0.11","21","3","<div style = ""font-size:60px;""> + </div>","null","","","","","","","","","","",""
"","null","learning_trial","html-keyboard-response","26","344969","0.0-3.0-1.11","21","3","
    <div class = 'grid-container'>
        <div class='header-text'> Friends </div>
        <div>
            Henry
            <img width='150' style='border:2px black solid;' src='stims/img/CFD-WM-237-052-N.jpg'>
        </div>
        <div> &nbsp; + &nbsp; </div>
        <div>
            Lucas
            <img width='150' style='border:2px black solid;' src='stims/img/CFD-AM-244-222-N.jpg'>
        </div>
        <div class='header-text'> &nbsp; </div>
    </div>
    ","null","0","false","5","stims/img/CFD-AM-244-222-N.jpg","Lucas","7","stims/img/CFD-WM-237-052-N.jpg","Henry","","",""
"","null","fixation","html-keyboard-response","27","345476","0.0-3.0-0.12","21","3","<div style = ""font-size:60px;""> + </div>","null","","","","","","","","","","",""
"","null","learning_trial","html-keyboard-response","28","347983","0.0-3.0-1.12","21","3","
    <div class = 'grid-container'>
        <div class='header-text'> Friends </div>
        <div>
            Camila
            <img width='150' style='border:2px black solid;' src='stims/img/CFD-LF-208-127-N.jpg'>
        </div>
        <div> &nbsp; + &nbsp; </div>
        <div>
            Lucas
            <img width='150' style='border:2px black solid;' src='stims/img/CFD-AM-244-222-N.jpg'>
        </div>
        <div class='header-text'> &nbsp; </div>
    </div>
    ","null","0","true","3","stims/img/CFD-LF-208-127-N.jpg","Camila","5","stims/img/CFD-AM-244-222-N.jpg","Lucas","","",""
"","null","fixation","html-keyboard-response","29","348484","0.0-3.0-0.13","21","3","<div style = ""font-size:60px;""> + </div>","null","","","","","","","","","","",""
"","null","learning_trial","html-keyboard-response","30","350990","0.0-3.0-1.13","21","3","
    <div class = 'grid-container'>
        <div class='header-text'> Friends </div>
        <div>
            Ava
            <img width='150' style='border:2px black solid;' src='stims/img/CFD-BF-244-231-N.jpg'>
        </div>
        <div> &nbsp; + &nbsp; </div>
        <div>
            Valentina
            <img width='150' style='border:2px black solid;' src='stims/img/CFD-LF-212-066-N.jpg'>
        </div>
        <div class='header-text'> &nbsp; </div>
    </div>
    ","null","0","true","4","stims/img/CFD-BF-244-231-N.jpg","Ava","6","stims/img/CFD-LF-212-066-N.jpg","Valentina","","",""
"","null","fixation","html-keyboard-response","31","351492","0.0-3.0-0.14","21","3","<div style = ""font-size:60px;""> + </div>","null","","","","","","","","","","",""
"","null","learning_trial","html-keyboard-response","32","353999","0.0-3.0-1.14","21","3","
    <div class = 'grid-container'>
        <div class='header-text'> Friends </div>
        <div>
            Christian
            <img width='150' style='border:2px black solid;' src='stims/img/CFD-BM-200-046-N.jpg'>
        </div>
        <div> &nbsp; + &nbsp; </div>
        <div>
            Elizabeth
            <img width='150' style='border:2px black solid;' src='stims/img/CFD-WF-208-068-N.jpg'>
        </div>
        <div class='header-text'> &nbsp; </div>
    </div>
    ","null","0","true","1","stims/img/CFD-BM-200-046-N.jpg","Christian","2","stims/img/CFD-WF-208-068-N.jpg","Elizabeth","","",""
"","null","fixation","html-keyboard-response","33","354502","0.0-3.0-0.15","21","3","<div style = ""font-size:60px;""> + </div>","null","","","","","","","","","","",""
"","null","learning_trial","html-keyboard-response","34","357007","0.0-3.0-1.15","21","3","
    <div class = 'grid-container'>
        <div class='header-text'> Friends </div>
        <div>
            Madison
            <img width='150' style='border:2px black solid;' src='stims/img/CFD-BF-221-223-N.jpg'>
        </div>
        <div> &nbsp; + &nbsp; </div>
        <div>
            Ethan
            <img width='150' style='border:2px black solid;' src='stims/img/CFD-AM-229-224-N.jpg'>
        </div>
        <div class='header-text'> &nbsp; </div>
    </div>
    ","null","0","false","9","stims/img/CFD-AM-229-224-N.jpg","Ethan","11","stims/img/CFD-BF-221-223-N.jpg","Madison","","",""
"","null","fixation","html-keyboard-response","35","357513","0.0-3.0-0.16","21","3","<div style = ""font-size:60px;""> + </div>","null","","","","","","","","","","",""
"","null","learning_trial","html-keyboard-response","36","360015","0.0-3.0-1.16","21","3","
    <div class = 'grid-container'>
        <div class='header-text'> Friends </div>
        <div>
            Olivia
            <img width='150' style='border:2px black solid;' src='stims/img/CFD-WF-231-099-N.jpg'>
        </div>
        <div> &nbsp; + &nbsp; </div>
        <div>
            Madison
            <img width='150' style='border:2px black solid;' src='stims/img/CFD-BF-221-223-N.jpg'>
        </div>
        <div class='header-text'> &nbsp; </div>
    </div>
    ","null","0","false","11","stims/img/CFD-BF-221-223-N.jpg","Madison","12","stims/img/CFD-WF-231-099-N.jpg","Olivia","","",""
"","1578","break","html-keyboard-response","37","361595","0.0-3.0-2.16-0.16","21","3","If you'd like to take a break before continuing, 
    please do so now. <p>To continue, please press the spacebar.</p>"," ","","","","","","","","","","",""
"","null","fixation","html-keyboard-response","38","362102","0.0-3.0-0.17","21","3","<div style = ""font-size:60px;""> + </div>","null","","","","","","","","","","",""
"","null","learning_trial","html-keyboard-response","39","364608","0.0-3.0-1.17","21","3","
    <div class = 'grid-container'>
        <div class='header-text'> Friends </div>
        <div>
            Madison
            <img width='150' style='border:2px black solid;' src='stims/img/CFD-BF-221-223-N.jpg'>
        </div>
        <div> &nbsp; + &nbsp; </div>
        <div>
            Joseph
            <img width='150' style='border:2px black solid;' src='stims/img/CFD-LM-212-143-N.jpg'>
        </div>
        <div class='header-text'> &nbsp; </div>
    </div>
    ","null","1","true","11","stims/img/CFD-BF-221-223-N.jpg","Madison","13","stims/img/CFD-LM-212-143-N.jpg","Joseph","","",""
"","null","fixation","html-keyboard-response","40","365115","0.0-3.0-0.18","21","3","<div style = ""font-size:60px;""> + </div>","null","","","","","","","","","","",""
"","null","learning_trial","html-keyboard-response","41","367620","0.0-3.0-1.18","21","3","
    <div class = 'grid-container'>
        <div class='header-text'> Friends </div>
        <div>
            Ava
            <img width='150' style='border:2px black solid;' src='stims/img/CFD-BF-244-231-N.jpg'>
        </div>
        <div> &nbsp; + &nbsp; </div>
        <div>
            Lucas
            <img width='150' style='border:2px black solid;' src='stims/img/CFD-AM-244-222-N.jpg'>
        </div>
        <div class='header-text'> &nbsp; </div>
    </div>
    ","null","1","true","4","stims/img/CFD-BF-244-231-N.jpg","Ava","5","stims/img/CFD-AM-244-222-N.jpg","Lucas","","",""
"","null","fixation","html-keyboard-response","42","368126","0.0-3.0-0.19","21","3","<div style = ""font-size:60px;""> + </div>","null","","","","","","","","","","",""
"","null","learning_trial","html-keyboard-response","43","370632","0.0-3.0-1.19","21","3","
    <div class = 'grid-container'>
        <div class='header-text'> Friends </div>
        <div>
            Henry
            <img width='150' style='border:2px black solid;' src='stims/img/CFD-WM-237-052-N.jpg'>
        </div>
        <div> &nbsp; + &nbsp; </div>
        <div>
            Lucas
            <img width='150' style='border:2px black solid;' src='stims/img/CFD-AM-244-222-N.jpg'>
        </div>
        <div class='header-text'> &nbsp; </div>
    </div>
    ","null","1","false","5","stims/img/CFD-AM-244-222-N.jpg","Lucas","7","stims/img/CFD-WM-237-052-N.jpg","Henry","","",""
"","null","fixation","html-keyboard-response","44","371133","0.0-3.0-0.20","21","3","<div style = ""font-size:60px;""> + </div>","null","","","","","","","","","","",""
"","null","learning_trial","html-keyboard-response","45","373640","0.0-3.0-1.20","21","3","
    <div class = 'grid-container'>
        <div class='header-text'> Friends </div>
        <div>
            Camila
            <img width='150' style='border:2px black solid;' src='stims/img/CFD-LF-208-127-N.jpg'>
        </div>
        <div> &nbsp; + &nbsp; </div>
        <div>
            Lucas
            <img width='150' style='border:2px black solid;' src='stims/img/CFD-AM-244-222-N.jpg'>
        </div>
        <div class='header-text'> &nbsp; </div>
    </div>
    ","null","1","true","3","stims/img/CFD-LF-208-127-N.jpg","Camila","5","stims/img/CFD-AM-244-222-N.jpg","Lucas","","",""
"","null","fixation","html-keyboard-response","46","374146","0.0-3.0-0.21","21","3","<div style = ""font-size:60px;""> + </div>","null","","","","","","","","","","",""
"","null","learning_trial","html-keyboard-response","47","376654","0.0-3.0-1.21","21","3","
    <div class = 'grid-container'>
        <div class='header-text'> Friends </div>
        <div>
            Olivia
            <img width='150' style='border:2px black solid;' src='stims/img/CFD-WF-231-099-N.jpg'>
        </div>
        <div> &nbsp; + &nbsp; </div>
        <div>
            Vicky
            <img width='150' style='border:2px black solid;' src='stims/img/CFD-AF-229-160-N.jpg'>
        </div>
        <div class='header-text'> &nbsp; </div>
    </div>
    ","null","1","false","10","stims/img/CFD-AF-229-160-N.jpg","Vicky","12","stims/img/CFD-WF-231-099-N.jpg","Olivia","","",""
"","null","fixation","html-keyboard-response","48","377161","0.0-3.0-0.22","21","3","<div style = ""font-size:60px;""> + </div>","null","","","","","","","","","","",""
"","null","learning_trial","html-keyboard-response","49","379668","0.0-3.0-1.22","21","3","
    <div class = 'grid-container'>
        <div class='header-text'> Friends </div>
        <div>
            Madison
            <img width='150' style='border:2px black solid;' src='stims/img/CFD-BF-221-223-N.jpg'>
        </div>
        <div> &nbsp; + &nbsp; </div>
        <div>
            Ethan
            <img width='150' style='border:2px black solid;' src='stims/img/CFD-AM-229-224-N.jpg'>
        </div>
        <div class='header-text'> &nbsp; </div>
    </div>
    ","null","1","false","9","stims/img/CFD-AM-229-224-N.jpg","Ethan","11","stims/img/CFD-BF-221-223-N.jpg","Madison","","",""
"","null","fixation","html-keyboard-response","50","380174","0.0-3.0-0.23","21","3","<div style = ""font-size:60px;""> + </div>","null","","","","","","","","","","",""
"","null","learning_trial","html-keyboard-response","51","382681","0.0-3.0-1.23","21","3","
    <div class = 'grid-container'>
        <div class='header-text'> Friends </div>
        <div>
            Joseph
            <img width='150' style='border:2px black solid;' src='stims/img/CFD-LM-212-143-N.jpg'>
        </div>
        <div> &nbsp; + &nbsp; </div>
        <div>
            Olivia
            <img width='150' style='border:2px black solid;' src='stims/img/CFD-WF-231-099-N.jpg'>
        </div>
        <div class='header-text'> &nbsp; </div>
    </div>
    ","null","1","false","12","stims/img/CFD-WF-231-099-N.jpg","Olivia","13","stims/img/CFD-LM-212-143-N.jpg","Joseph","","",""
"","null","fixation","html-keyboard-response","52","383187","0.0-3.0-0.24","21","3","<div style = ""font-size:60px;""> + </div>","null","","","","","","","","","","",""
"","null","learning_trial","html-keyboard-response","53","385695","0.0-3.0-1.24","21","3","
    <div class = 'grid-container'>
        <div class='header-text'> Friends </div>
        <div>
            Christian
            <img width='150' style='border:2px black solid;' src='stims/img/CFD-BM-200-046-N.jpg'>
        </div>
        <div> &nbsp; + &nbsp; </div>
        <div>
            Elizabeth
            <img width='150' style='border:2px black solid;' src='stims/img/CFD-WF-208-068-N.jpg'>
        </div>
        <div class='header-text'> &nbsp; </div>
    </div>
    ","null","1","true","1","stims/img/CFD-BM-200-046-N.jpg","Christian","2","stims/img/CFD-WF-208-068-N.jpg","Elizabeth","","",""
"","null","fixation","html-keyboard-response","54","386201","0.0-3.0-0.25","21","3","<div style = ""font-size:60px;""> + </div>","null","","","","","","","","","","",""
"","null","learning_trial","html-keyboard-response","55","388708","0.0-3.0-1.25","21","3","
    <div class = 'grid-container'>
        <div class='header-text'> Friends </div>
        <div>
            Valentina
            <img width='150' style='border:2px black solid;' src='stims/img/CFD-LF-212-066-N.jpg'>
        </div>
        <div> &nbsp; + &nbsp; </div>
        <div>
            Henry
            <img width='150' style='border:2px black solid;' src='stims/img/CFD-WM-237-052-N.jpg'>
        </div>
        <div class='header-text'> &nbsp; </div>
    </div>
    ","null","1","true","6","stims/img/CFD-LF-212-066-N.jpg","Valentina","7","stims/img/CFD-WM-237-052-N.jpg","Henry","","",""
"","null","fixation","html-keyboard-response","56","389215","0.0-3.0-0.26","21","3","<div style = ""font-size:60px;""> + </div>","null","","","","","","","","","","",""
"","null","learning_trial","html-keyboard-response","57","391721","0.0-3.0-1.26","21","3","
    <div class = 'grid-container'>
        <div class='header-text'> Friends </div>
        <div>
            Christian
            <img width='150' style='border:2px black solid;' src='stims/img/CFD-BM-200-046-N.jpg'>
        </div>
        <div> &nbsp; + &nbsp; </div>
        <div>
            Ayden
            <img width='150' style='border:2px black solid;' src='stims/img/CFD-BM-235-226-N.jpg'>
        </div>
        <div class='header-text'> &nbsp; </div>
    </div>
    ","null","1","true","1","stims/img/CFD-BM-200-046-N.jpg","Christian","8","stims/img/CFD-BM-235-226-N.jpg","Ayden","","",""
"","null","fixation","html-keyboard-response","58","392228","0.0-3.0-0.27","21","3","<div style = ""font-size:60px;""> + </div>","null","","","","","","","","","","",""
"","null","learning_trial","html-keyboard-response","59","394731","0.0-3.0-1.27","21","3","
    <div class = 'grid-container'>
        <div class='header-text'> Friends </div>
        <div>
            Ava
            <img width='150' style='border:2px black solid;' src='stims/img/CFD-BF-244-231-N.jpg'>
        </div>
        <div> &nbsp; + &nbsp; </div>
        <div>
            Camila
            <img width='150' style='border:2px black solid;' src='stims/img/CFD-LF-208-127-N.jpg'>
        </div>
        <div class='header-text'> &nbsp; </div>
    </div>
    ","null","1","false","3","stims/img/CFD-LF-208-127-N.jpg","Camila","4","stims/img/CFD-BF-244-231-N.jpg","Ava","","",""
"","null","fixation","html-keyboard-response","60","395237","0.0-3.0-0.28","21","3","<div style = ""font-size:60px;""> + </div>","null","","","","","","","","","","",""
"","null","learning_trial","html-keyboard-response","61","397743","0.0-3.0-1.28","21","3","
    <div class = 'grid-container'>
        <div class='header-text'> Friends </div>
        <div>
            Madison
            <img width='150' style='border:2px black solid;' src='stims/img/CFD-BF-221-223-N.jpg'>
        </div>
        <div> &nbsp; + &nbsp; </div>
        <div>
            Olivia
            <img width='150' style='border:2px black solid;' src='stims/img/CFD-WF-231-099-N.jpg'>
        </div>
        <div class='header-text'> &nbsp; </div>
    </div>
    ","null","1","true","11","stims/img/CFD-BF-221-223-N.jpg","Madison","12","stims/img/CFD-WF-231-099-N.jpg","Olivia","","",""
"","null","fixation","html-keyboard-response","62","398244","0.0-3.0-0.29","21","3","<div style = ""font-size:60px;""> + </div>","null","","","","","","","","","","",""
"","null","learning_trial","html-keyboard-response","63","400751","0.0-3.0-1.29","21","3","
    <div class = 'grid-container'>
        <div class='header-text'> Friends </div>
        <div>
            Elizabeth
            <img width='150' style='border:2px black solid;' src='stims/img/CFD-WF-208-068-N.jpg'>
        </div>
        <div> &nbsp; + &nbsp; </div>
        <div>
            Ava
            <img width='150' style='border:2px black solid;' src='stims/img/CFD-BF-244-231-N.jpg'>
        </div>
        <div class='header-text'> &nbsp; </div>
    </div>
    ","null","1","true","2","stims/img/CFD-WF-208-068-N.jpg","Elizabeth","4","stims/img/CFD-BF-244-231-N.jpg","Ava","","",""
"","null","fixation","html-keyboard-response","64","401257","0.0-3.0-0.30","21","3","<div style = ""font-size:60px;""> + </div>","null","","","","","","","","","","",""
"","null","learning_trial","html-keyboard-response","65","403764","0.0-3.0-1.30","21","3","
    <div class = 'grid-container'>
        <div class='header-text'> Friends </div>
        <div>
            Elizabeth
            <img width='150' style='border:2px black solid;' src='stims/img/CFD-WF-208-068-N.jpg'>
        </div>
        <div> &nbsp; + &nbsp; </div>
        <div>
            Camila
            <img width='150' style='border:2px black solid;' src='stims/img/CFD-LF-208-127-N.jpg'>
        </div>
        <div class='header-text'> &nbsp; </div>
    </div>
    ","null","1","true","2","stims/img/CFD-WF-208-068-N.jpg","Elizabeth","3","stims/img/CFD-LF-208-127-N.jpg","Camila","","",""
"","null","fixation","html-keyboard-response","66","404270","0.0-3.0-0.31","21","3","<div style = ""font-size:60px;""> + </div>","null","","","","","","","","","","",""
"","null","learning_trial","html-keyboard-response","67","406778","0.0-3.0-1.31","21","3","
    <div class = 'grid-container'>
        <div class='header-text'> Friends </div>
        <div>
            Ayden
            <img width='150' style='border:2px black solid;' src='stims/img/CFD-BM-235-226-N.jpg'>
        </div>
        <div> &nbsp; + &nbsp; </div>
        <div>
            Ethan
            <img width='150' style='border:2px black solid;' src='stims/img/CFD-AM-229-224-N.jpg'>
        </div>
        <div class='header-text'> &nbsp; </div>
    </div>
    ","null","1","true","8","stims/img/CFD-BM-235-226-N.jpg","Ayden","9","stims/img/CFD-AM-229-224-N.jpg","Ethan","","",""
"","null","fixation","html-keyboard-response","68","407283","0.0-3.0-0.32","21","3","<div style = ""font-size:60px;""> + </div>","null","","","","","","","","","","",""
"","null","learning_trial","html-keyboard-response","69","409790","0.0-3.0-1.32","21","3","
    <div class = 'grid-container'>
        <div class='header-text'> Friends </div>
        <div>
            Valentina
            <img width='150' style='border:2px black solid;' src='stims/img/CFD-LF-212-066-N.jpg'>
        </div>
        <div> &nbsp; + &nbsp; </div>
        <div>
            Ava
            <img width='150' style='border:2px black solid;' src='stims/img/CFD-BF-244-231-N.jpg'>
        </div>
        <div class='header-text'> &nbsp; </div>
    </div>
    ","null","1","false","4","stims/img/CFD-BF-244-231-N.jpg","Ava","6","stims/img/CFD-LF-212-066-N.jpg","Valentina","","",""
"","null","fixation","html-keyboard-response","70","410296","0.0-3.0-0.33","21","3","<div style = ""font-size:60px;""> + </div>","null","","","","","","","","","","",""
"","null","learning_trial","html-keyboard-response","71","412804","0.0-3.0-1.33","21","3","
    <div class = 'grid-container'>
        <div class='header-text'> Friends </div>
        <div>
            Ayden
            <img width='150' style='border:2px black solid;' src='stims/img/CFD-BM-235-226-N.jpg'>
        </div>
        <div> &nbsp; + &nbsp; </div>
        <div>
            Vicky
            <img width='150' style='border:2px black solid;' src='stims/img/CFD-AF-229-160-N.jpg'>
        </div>
        <div class='header-text'> &nbsp; </div>
    </div>
    ","null","1","true","8","stims/img/CFD-BM-235-226-N.jpg","Ayden","10","stims/img/CFD-AF-229-160-N.jpg","Vicky","","",""
"","1519","break","html-keyboard-response","72","414323","0.0-3.0-2.33-0.33","21","3","If you'd like to take a break before continuing, 
    please do so now. <p>To continue, please press the spacebar.</p>"," ","","","","","","","","","","",""
"","null","fixation","html-keyboard-response","73","414827","0.0-3.0-0.34","21","3","<div style = ""font-size:60px;""> + </div>","null","","","","","","","","","","",""
"","null","learning_trial","html-keyboard-response","74","417334","0.0-3.0-1.34","21","3","
    <div class = 'grid-container'>
        <div class='header-text'> Friends </div>
        <div>
            Ava
            <img width='150' style='border:2px black solid;' src='stims/img/CFD-BF-244-231-N.jpg'>
        </div>
        <div> &nbsp; + &nbsp; </div>
        <div>
            Lucas
            <img width='150' style='border:2px black solid;' src='stims/img/CFD-AM-244-222-N.jpg'>
        </div>
        <div class='header-text'> &nbsp; </div>
    </div>
    ","null","2","true","4","stims/img/CFD-BF-244-231-N.jpg","Ava","5","stims/img/CFD-AM-244-222-N.jpg","Lucas","","",""
"","null","fixation","html-keyboard-response","75","417841","0.0-3.0-0.35","21","3","<div style = ""font-size:60px;""> + </div>","null","","","","","","","","","","",""
"","null","learning_trial","html-keyboard-response","76","420345","0.0-3.0-1.35","21","3","
    <div class = 'grid-container'>
        <div class='header-text'> Friends </div>
        <div>
            Elizabeth
            <img width='150' style='border:2px black solid;' src='stims/img/CFD-WF-208-068-N.jpg'>
        </div>
        <div> &nbsp; + &nbsp; </div>
        <div>
            Christian
            <img width='150' style='border:2px black solid;' src='stims/img/CFD-BM-200-046-N.jpg'>
        </div>
        <div class='header-text'> &nbsp; </div>
    </div>
    ","null","2","false","1","stims/img/CFD-BM-200-046-N.jpg","Christian","2","stims/img/CFD-WF-208-068-N.jpg","Elizabeth","","",""
"","null","fixation","html-keyboard-response","77","420852","0.0-3.0-0.36","21","3","<div style = ""font-size:60px;""> + </div>","null","","","","","","","","","","",""
"","null","learning_trial","html-keyboard-response","78","423353","0.0-3.0-1.36","21","3","
    <div class = 'grid-container'>
        <div class='header-text'> Friends </div>
        <div>
            Ayden
            <img width='150' style='border:2px black solid;' src='stims/img/CFD-BM-235-226-N.jpg'>
        </div>
        <div> &nbsp; + &nbsp; </div>
        <div>
            Ethan
            <img width='150' style='border:2px black solid;' src='stims/img/CFD-AM-229-224-N.jpg'>
        </div>
        <div class='header-text'> &nbsp; </div>
    </div>
    ","null","2","true","8","stims/img/CFD-BM-235-226-N.jpg","Ayden","9","stims/img/CFD-AM-229-224-N.jpg","Ethan","","",""
"","null","fixation","html-keyboard-response","79","423855","0.0-3.0-0.37","21","3","<div style = ""font-size:60px;""> + </div>","null","","","","","","","","","","",""
"","null","learning_trial","html-keyboard-response","80","426362","0.0-3.0-1.37","21","3","
    <div class = 'grid-container'>
        <div class='header-text'> Friends </div>
        <div>
            Lucas
            <img width='150' style='border:2px black solid;' src='stims/img/CFD-AM-244-222-N.jpg'>
        </div>
        <div> &nbsp; + &nbsp; </div>
        <div>
            Henry
            <img width='150' style='border:2px black solid;' src='stims/img/CFD-WM-237-052-N.jpg'>
        </div>
        <div class='header-text'> &nbsp; </div>
    </div>
    ","null","2","true","5","stims/img/CFD-AM-244-222-N.jpg","Lucas","7","stims/img/CFD-WM-237-052-N.jpg","Henry","","",""
"","null","fixation","html-keyboard-response","81","426868","0.0-3.0-0.38","21","3","<div style = ""font-size:60px;""> + </div>","null","","","","","","","","","","",""
"","null","learning_trial","html-keyboard-response","82","429374","0.0-3.0-1.38","21","3","
    <div class = 'grid-container'>
        <div class='header-text'> Friends </div>
        <div>
            Ayden
            <img width='150' style='border:2px black solid;' src='stims/img/CFD-BM-235-226-N.jpg'>
        </div>
        <div> &nbsp; + &nbsp; </div>
        <div>
            Christian
            <img width='150' style='border:2px black solid;' src='stims/img/CFD-BM-200-046-N.jpg'>
        </div>
        <div class='header-text'> &nbsp; </div>
    </div>
    ","null","2","false","1","stims/img/CFD-BM-200-046-N.jpg","Christian","8","stims/img/CFD-BM-235-226-N.jpg","Ayden","","",""
"","null","fixation","html-keyboard-response","83","429881","0.0-3.0-0.39","21","3","<div style = ""font-size:60px;""> + </div>","null","","","","","","","","","","",""
"","null","learning_trial","html-keyboard-response","84","432388","0.0-3.0-1.39","21","3","
    <div class = 'grid-container'>
        <div class='header-text'> Friends </div>
        <div>
            Elizabeth
            <img width='150' style='border:2px black solid;' src='stims/img/CFD-WF-208-068-N.jpg'>
        </div>
        <div> &nbsp; + &nbsp; </div>
        <div>
            Camila
            <img width='150' style='border:2px black solid;' src='stims/img/CFD-LF-208-127-N.jpg'>
        </div>
        <div class='header-text'> &nbsp; </div>
    </div>
    ","null","2","true","2","stims/img/CFD-WF-208-068-N.jpg","Elizabeth","3","stims/img/CFD-LF-208-127-N.jpg","Camila","","",""
"","null","fixation","html-keyboard-response","85","432890","0.0-3.0-0.40","21","3","<div style = ""font-size:60px;""> + </div>","null","","","","","","","","","","",""
"","null","learning_trial","html-keyboard-response","86","435397","0.0-3.0-1.40","21","3","
    <div class = 'grid-container'>
        <div class='header-text'> Friends </div>
        <div>
            Joseph
            <img width='150' style='border:2px black solid;' src='stims/img/CFD-LM-212-143-N.jpg'>
        </div>
        <div> &nbsp; + &nbsp; </div>
        <div>
            Olivia
            <img width='150' style='border:2px black solid;' src='stims/img/CFD-WF-231-099-N.jpg'>
        </div>
        <div class='header-text'> &nbsp; </div>
    </div>
    ","null","2","false","12","stims/img/CFD-WF-231-099-N.jpg","Olivia","13","stims/img/CFD-LM-212-143-N.jpg","Joseph","","",""
"","null","fixation","html-keyboard-response","87","435903","0.0-3.0-0.41","21","3","<div style = ""font-size:60px;""> + </div>","null","","","","","","","","","","",""
"","null","learning_trial","html-keyboard-response","88","438410","0.0-3.0-1.41","21","3","
    <div class = 'grid-container'>
        <div class='header-text'> Friends </div>
        <div>
            Ava
            <img width='150' style='border:2px black solid;' src='stims/img/CFD-BF-244-231-N.jpg'>
        </div>
        <div> &nbsp; + &nbsp; </div>
        <div>
            Valentina
            <img width='150' style='border:2px black solid;' src='stims/img/CFD-LF-212-066-N.jpg'>
        </div>
        <div class='header-text'> &nbsp; </div>
    </div>
    ","null","2","true","4","stims/img/CFD-BF-244-231-N.jpg","Ava","6","stims/img/CFD-LF-212-066-N.jpg","Valentina","","",""
"","null","fixation","html-keyboard-response","89","438915","0.0-3.0-0.42","21","3","<div style = ""font-size:60px;""> + </div>","null","","","","","","","","","","",""
"","null","learning_trial","html-keyboard-response","90","441422","0.0-3.0-1.42","21","3","
    <div class = 'grid-container'>
        <div class='header-text'> Friends </div>
        <div>
            Olivia
            <img width='150' style='border:2px black solid;' src='stims/img/CFD-WF-231-099-N.jpg'>
        </div>
        <div> &nbsp; + &nbsp; </div>
        <div>
            Vicky
            <img width='150' style='border:2px black solid;' src='stims/img/CFD-AF-229-160-N.jpg'>
        </div>
        <div class='header-text'> &nbsp; </div>
    </div>
    ","null","2","false","10","stims/img/CFD-AF-229-160-N.jpg","Vicky","12","stims/img/CFD-WF-231-099-N.jpg","Olivia","","",""
"","null","fixation","html-keyboard-response","91","441929","0.0-3.0-0.43","21","3","<div style = ""font-size:60px;""> + </div>","null","","","","","","","","","","",""
"","null","learning_trial","html-keyboard-response","92","444436","0.0-3.0-1.43","21","3","
    <div class = 'grid-container'>
        <div class='header-text'> Friends </div>
        <div>
            Ethan
            <img width='150' style='border:2px black solid;' src='stims/img/CFD-AM-229-224-N.jpg'>
        </div>
        <div> &nbsp; + &nbsp; </div>
        <div>
            Madison
            <img width='150' style='border:2px black solid;' src='stims/img/CFD-BF-221-223-N.jpg'>
        </div>
        <div class='header-text'> &nbsp; </div>
    </div>
    ","null","2","true","9","stims/img/CFD-AM-229-224-N.jpg","Ethan","11","stims/img/CFD-BF-221-223-N.jpg","Madison","","",""
"","null","fixation","html-keyboard-response","93","444942","0.0-3.0-0.44","21","3","<div style = ""font-size:60px;""> + </div>","null","","","","","","","","","","",""
"","null","learning_trial","html-keyboard-response","94","447448","0.0-3.0-1.44","21","3","
    <div class = 'grid-container'>
        <div class='header-text'> Friends </div>
        <div>
            Valentina
            <img width='150' style='border:2px black solid;' src='stims/img/CFD-LF-212-066-N.jpg'>
        </div>
        <div> &nbsp; + &nbsp; </div>
        <div>
            Henry
            <img width='150' style='border:2px black solid;' src='stims/img/CFD-WM-237-052-N.jpg'>
        </div>
        <div class='header-text'> &nbsp; </div>
    </div>
    ","null","2","true","6","stims/img/CFD-LF-212-066-N.jpg","Valentina","7","stims/img/CFD-WM-237-052-N.jpg","Henry","","",""
"","null","fixation","html-keyboard-response","95","447955","0.0-3.0-0.45","21","3","<div style = ""font-size:60px;""> + </div>","null","","","","","","","","","","",""
"","null","learning_trial","html-keyboard-response","96","450457","0.0-3.0-1.45","21","3","
    <div class = 'grid-container'>
        <div class='header-text'> Friends </div>
        <div>
            Ava
            <img width='150' style='border:2px black solid;' src='stims/img/CFD-BF-244-231-N.jpg'>
        </div>
        <div> &nbsp; + &nbsp; </div>
        <div>
            Elizabeth
            <img width='150' style='border:2px black solid;' src='stims/img/CFD-WF-208-068-N.jpg'>
        </div>
        <div class='header-text'> &nbsp; </div>
    </div>
    ","null","2","false","2","stims/img/CFD-WF-208-068-N.jpg","Elizabeth","4","stims/img/CFD-BF-244-231-N.jpg","Ava","","",""
"","null","fixation","html-keyboard-response","97","450964","0.0-3.0-0.46","21","3","<div style = ""font-size:60px;""> + </div>","null","","","","","","","","","","",""
"","null","learning_trial","html-keyboard-response","98","453470","0.0-3.0-1.46","21","3","
    <div class = 'grid-container'>
        <div class='header-text'> Friends </div>
        <div>
            Vicky
            <img width='150' style='border:2px black solid;' src='stims/img/CFD-AF-229-160-N.jpg'>
        </div>
        <div> &nbsp; + &nbsp; </div>
        <div>
            Ayden
            <img width='150' style='border:2px black solid;' src='stims/img/CFD-BM-235-226-N.jpg'>
        </div>
        <div class='header-text'> &nbsp; </div>
    </div>
    ","null","2","false","8","stims/img/CFD-BM-235-226-N.jpg","Ayden","10","stims/img/CFD-AF-229-160-N.jpg","Vicky","","",""
"","null","fixation","html-keyboard-response","99","453978","0.0-3.0-0.47","21","3","<div style = ""font-size:60px;""> + </div>","null","","","","","","","","","","",""
"","null","learning_trial","html-keyboard-response","100","456485","0.0-3.0-1.47","21","3","
    <div class = 'grid-container'>
        <div class='header-text'> Friends </div>
        <div>
            Ava
            <img width='150' style='border:2px black solid;' src='stims/img/CFD-BF-244-231-N.jpg'>
        </div>
        <div> &nbsp; + &nbsp; </div>
        <div>
            Camila
            <img width='150' style='border:2px black solid;' src='stims/img/CFD-LF-208-127-N.jpg'>
        </div>
        <div class='header-text'> &nbsp; </div>
    </div>
    ","null","2","false","3","stims/img/CFD-LF-208-127-N.jpg","Camila","4","stims/img/CFD-BF-244-231-N.jpg","Ava","","",""
"","null","fixation","html-keyboard-response","101","456991","0.0-3.0-0.48","21","3","<div style = ""font-size:60px;""> + </div>","null","","","","","","","","","","",""
"","null","learning_trial","html-keyboard-response","102","459498","0.0-3.0-1.48","21","3","
    <div class = 'grid-container'>
        <div class='header-text'> Friends </div>
        <div>
            Camila
            <img width='150' style='border:2px black solid;' src='stims/img/CFD-LF-208-127-N.jpg'>
        </div>
        <div> &nbsp; + &nbsp; </div>
        <div>
            Lucas
            <img width='150' style='border:2px black solid;' src='stims/img/CFD-AM-244-222-N.jpg'>
        </div>
        <div class='header-text'> &nbsp; </div>
    </div>
    ","null","2","true","3","stims/img/CFD-LF-208-127-N.jpg","Camila","5","stims/img/CFD-AM-244-222-N.jpg","Lucas","","",""
"","null","fixation","html-keyboard-response","103","460005","0.0-3.0-0.49","21","3","<div style = ""font-size:60px;""> + </div>","null","","","","","","","","","","",""
"","null","learning_trial","html-keyboard-response","104","462512","0.0-3.0-1.49","21","3","
    <div class = 'grid-container'>
        <div class='header-text'> Friends </div>
        <div>
            Madison
            <img width='150' style='border:2px black solid;' src='stims/img/CFD-BF-221-223-N.jpg'>
        </div>
        <div> &nbsp; + &nbsp; </div>
        <div>
            Olivia
            <img width='150' style='border:2px black solid;' src='stims/img/CFD-WF-231-099-N.jpg'>
        </div>
        <div class='header-text'> &nbsp; </div>
    </div>
    ","null","2","true","11","stims/img/CFD-BF-221-223-N.jpg","Madison","12","stims/img/CFD-WF-231-099-N.jpg","Olivia","","",""
"","null","fixation","html-keyboard-response","105","463018","0.0-3.0-0.50","21","3","<div style = ""font-size:60px;""> + </div>","null","","","","","","","","","","",""
"","null","learning_trial","html-keyboard-response","106","465525","0.0-3.0-1.50","21","3","
    <div class = 'grid-container'>
        <div class='header-text'> Friends </div>
        <div>
            Madison
            <img width='150' style='border:2px black solid;' src='stims/img/CFD-BF-221-223-N.jpg'>
        </div>
        <div> &nbsp; + &nbsp; </div>
        <div>
            Joseph
            <img width='150' style='border:2px black solid;' src='stims/img/CFD-LM-212-143-N.jpg'>
        </div>
        <div class='header-text'> &nbsp; </div>
    </div>
    ","null","2","true","11","stims/img/CFD-BF-221-223-N.jpg","Madison","13","stims/img/CFD-LM-212-143-N.jpg","Joseph","","",""
"","1683","break","html-keyboard-response","107","467209","0.0-3.0-2.50-0.50","21","3","If you'd like to take a break before continuing, 
    please do so now. <p>To continue, please press the spacebar.</p>"," ","","","","","","","","","","",""
"","null","fixation","html-keyboard-response","108","467715","0.0-3.0-0.51","21","3","<div style = ""font-size:60px;""> + </div>","null","","","","","","","","","","",""
"","null","learning_trial","html-keyboard-response","109","470221","0.0-3.0-1.51","21","3","
    <div class = 'grid-container'>
        <div class='header-text'> Friends </div>
        <div>
            Madison
            <img width='150' style='border:2px black solid;' src='stims/img/CFD-BF-221-223-N.jpg'>
        </div>
        <div> &nbsp; + &nbsp; </div>
        <div>
            Olivia
            <img width='150' style='border:2px black solid;' src='stims/img/CFD-WF-231-099-N.jpg'>
        </div>
        <div class='header-text'> &nbsp; </div>
    </div>
    ","null","3","true","11","stims/img/CFD-BF-221-223-N.jpg","Madison","12","stims/img/CFD-WF-231-099-N.jpg","Olivia","","",""
"","null","fixation","html-keyboard-response","110","470729","0.0-3.0-0.52","21","3","<div style = ""font-size:60px;""> + </div>","null","","","","","","","","","","",""
"","null","learning_trial","html-keyboard-response","111","473236","0.0-3.0-1.52","21","3","
    <div class = 'grid-container'>
        <div class='header-text'> Friends </div>
        <div>
            Ayden
            <img width='150' style='border:2px black solid;' src='stims/img/CFD-BM-235-226-N.jpg'>
        </div>
        <div> &nbsp; + &nbsp; </div>
        <div>
            Vicky
            <img width='150' style='border:2px black solid;' src='stims/img/CFD-AF-229-160-N.jpg'>
        </div>
        <div class='header-text'> &nbsp; </div>
    </div>
    ","null","3","true","8","stims/img/CFD-BM-235-226-N.jpg","Ayden","10","stims/img/CFD-AF-229-160-N.jpg","Vicky","","",""
"","null","fixation","html-keyboard-response","112","473742","0.0-3.0-0.53","21","3","<div style = ""font-size:60px;""> + </div>","null","","","","","","","","","","",""
"","null","learning_trial","html-keyboard-response","113","476248","0.0-3.0-1.53","21","3","
    <div class = 'grid-container'>
        <div class='header-text'> Friends </div>
        <div>
            Elizabeth
            <img width='150' style='border:2px black solid;' src='stims/img/CFD-WF-208-068-N.jpg'>
        </div>
        <div> &nbsp; + &nbsp; </div>
        <div>
            Camila
            <img width='150' style='border:2px black solid;' src='stims/img/CFD-LF-208-127-N.jpg'>
        </div>
        <div class='header-text'> &nbsp; </div>
    </div>
    ","null","3","true","2","stims/img/CFD-WF-208-068-N.jpg","Elizabeth","3","stims/img/CFD-LF-208-127-N.jpg","Camila","","",""
"","null","fixation","html-keyboard-response","114","476754","0.0-3.0-0.54","21","3","<div style = ""font-size:60px;""> + </div>","null","","","","","","","","","","",""
"","null","learning_trial","html-keyboard-response","115","479262","0.0-3.0-1.54","21","3","
    <div class = 'grid-container'>
        <div class='header-text'> Friends </div>
        <div>
            Christian
            <img width='150' style='border:2px black solid;' src='stims/img/CFD-BM-200-046-N.jpg'>
        </div>
        <div> &nbsp; + &nbsp; </div>
        <div>
            Ayden
            <img width='150' style='border:2px black solid;' src='stims/img/CFD-BM-235-226-N.jpg'>
        </div>
        <div class='header-text'> &nbsp; </div>
    </div>
    ","null","3","true","1","stims/img/CFD-BM-200-046-N.jpg","Christian","8","stims/img/CFD-BM-235-226-N.jpg","Ayden","","",""
"","null","fixation","html-keyboard-response","116","479768","0.0-3.0-0.55","21","3","<div style = ""font-size:60px;""> + </div>","null","","","","","","","","","","",""
"","null","learning_trial","html-keyboard-response","117","482275","0.0-3.0-1.55","21","3","
    <div class = 'grid-container'>
        <div class='header-text'> Friends </div>
        <div>
            Elizabeth
            <img width='150' style='border:2px black solid;' src='stims/img/CFD-WF-208-068-N.jpg'>
        </div>
        <div> &nbsp; + &nbsp; </div>
        <div>
            Ava
            <img width='150' style='border:2px black solid;' src='stims/img/CFD-BF-244-231-N.jpg'>
        </div>
        <div class='header-text'> &nbsp; </div>
    </div>
    ","null","3","true","2","stims/img/CFD-WF-208-068-N.jpg","Elizabeth","4","stims/img/CFD-BF-244-231-N.jpg","Ava","","",""
"","null","fixation","html-keyboard-response","118","482781","0.0-3.0-0.56","21","3","<div style = ""font-size:60px;""> + </div>","null","","","","","","","","","","",""
"","null","learning_trial","html-keyboard-response","119","485288","0.0-3.0-1.56","21","3","
    <div class = 'grid-container'>
        <div class='header-text'> Friends </div>
        <div>
            Lucas
            <img width='150' style='border:2px black solid;' src='stims/img/CFD-AM-244-222-N.jpg'>
        </div>
        <div> &nbsp; + &nbsp; </div>
        <div>
            Ava
            <img width='150' style='border:2px black solid;' src='stims/img/CFD-BF-244-231-N.jpg'>
        </div>
        <div class='header-text'> &nbsp; </div>
    </div>
    ","null","3","false","4","stims/img/CFD-BF-244-231-N.jpg","Ava","5","stims/img/CFD-AM-244-222-N.jpg","Lucas","","",""
"","null","fixation","html-keyboard-response","120","485794","0.0-3.0-0.57","21","3","<div style = ""font-size:60px;""> + </div>","null","","","","","","","","","","",""
"","null","learning_trial","html-keyboard-response","121","488301","0.0-3.0-1.57","21","3","
    <div class = 'grid-container'>
        <div class='header-text'> Friends </div>
        <div>
            Valentina
            <img width='150' style='border:2px black solid;' src='stims/img/CFD-LF-212-066-N.jpg'>
        </div>
        <div> &nbsp; + &nbsp; </div>
        <div>
            Henry
            <img width='150' style='border:2px black solid;' src='stims/img/CFD-WM-237-052-N.jpg'>
        </div>
        <div class='header-text'> &nbsp; </div>
    </div>
    ","null","3","true","6","stims/img/CFD-LF-212-066-N.jpg","Valentina","7","stims/img/CFD-WM-237-052-N.jpg","Henry","","",""
"","null","fixation","html-keyboard-response","122","488808","0.0-3.0-0.58","21","3","<div style = ""font-size:60px;""> + </div>","null","","","","","","","","","","",""
"","null","learning_trial","html-keyboard-response","123","491311","0.0-3.0-1.58","21","3","
    <div class = 'grid-container'>
        <div class='header-text'> Friends </div>
        <div>
            Elizabeth
            <img width='150' style='border:2px black solid;' src='stims/img/CFD-WF-208-068-N.jpg'>
        </div>
        <div> &nbsp; + &nbsp; </div>
        <div>
            Christian
            <img width='150' style='border:2px black solid;' src='stims/img/CFD-BM-200-046-N.jpg'>
        </div>
        <div class='header-text'> &nbsp; </div>
    </div>
    ","null","3","false","1","stims/img/CFD-BM-200-046-N.jpg","Christian","2","stims/img/CFD-WF-208-068-N.jpg","Elizabeth","","",""
"","null","fixation","html-keyboard-response","124","491817","0.0-3.0-0.59","21","3","<div style = ""font-size:60px;""> + </div>","null","","","","","","","","","","",""
"","null","learning_trial","html-keyboard-response","125","494324","0.0-3.0-1.59","21","3","
    <div class = 'grid-container'>
        <div class='header-text'> Friends </div>
        <div>
            Ayden
            <img width='150' style='border:2px black solid;' src='stims/img/CFD-BM-235-226-N.jpg'>
        </div>
        <div> &nbsp; + &nbsp; </div>
        <div>
            Ethan
            <img width='150' style='border:2px black solid;' src='stims/img/CFD-AM-229-224-N.jpg'>
        </div>
        <div class='header-text'> &nbsp; </div>
    </div>
    ","null","3","true","8","stims/img/CFD-BM-235-226-N.jpg","Ayden","9","stims/img/CFD-AM-229-224-N.jpg","Ethan","","",""
"","null","fixation","html-keyboard-response","126","494830","0.0-3.0-0.60","21","3","<div style = ""font-size:60px;""> + </div>","null","","","","","","","","","","",""
"","null","learning_trial","html-keyboard-response","127","497337","0.0-3.0-1.60","21","3","
    <div class = 'grid-container'>
        <div class='header-text'> Friends </div>
        <div>
            Camila
            <img width='150' style='border:2px black solid;' src='stims/img/CFD-LF-208-127-N.jpg'>
        </div>
        <div> &nbsp; + &nbsp; </div>
        <div>
            Lucas
            <img width='150' style='border:2px black solid;' src='stims/img/CFD-AM-244-222-N.jpg'>
        </div>
        <div class='header-text'> &nbsp; </div>
    </div>
    ","null","3","true","3","stims/img/CFD-LF-208-127-N.jpg","Camila","5","stims/img/CFD-AM-244-222-N.jpg","Lucas","","",""
"","null","fixation","html-keyboard-response","128","497844","0.0-3.0-0.61","21","3","<div style = ""font-size:60px;""> + </div>","null","","","","","","","","","","",""
"","null","learning_trial","html-keyboard-response","129","500350","0.0-3.0-1.61","21","3","
    <div class = 'grid-container'>
        <div class='header-text'> Friends </div>
        <div>
            Madison
            <img width='150' style='border:2px black solid;' src='stims/img/CFD-BF-221-223-N.jpg'>
        </div>
        <div> &nbsp; + &nbsp; </div>
        <div>
            Joseph
            <img width='150' style='border:2px black solid;' src='stims/img/CFD-LM-212-143-N.jpg'>
        </div>
        <div class='header-text'> &nbsp; </div>
    </div>
    ","null","3","true","11","stims/img/CFD-BF-221-223-N.jpg","Madison","13","stims/img/CFD-LM-212-143-N.jpg","Joseph","","",""
"","null","fixation","html-keyboard-response","130","500856","0.0-3.0-0.62","21","3","<div style = ""font-size:60px;""> + </div>","null","","","","","","","","","","",""
"","null","learning_trial","html-keyboard-response","131","503363","0.0-3.0-1.62","21","3","
    <div class = 'grid-container'>
        <div class='header-text'> Friends </div>
        <div>
            Valentina
            <img width='150' style='border:2px black solid;' src='stims/img/CFD-LF-212-066-N.jpg'>
        </div>
        <div> &nbsp; + &nbsp; </div>
        <div>
            Ava
            <img width='150' style='border:2px black solid;' src='stims/img/CFD-BF-244-231-N.jpg'>
        </div>
        <div class='header-text'> &nbsp; </div>
    </div>
    ","null","3","false","4","stims/img/CFD-BF-244-231-N.jpg","Ava","6","stims/img/CFD-LF-212-066-N.jpg","Valentina","","",""
"","null","fixation","html-keyboard-response","132","503870","0.0-3.0-0.63","21","3","<div style = ""font-size:60px;""> + </div>","null","","","","","","","","","","",""
"","null","learning_trial","html-keyboard-response","133","506372","0.0-3.0-1.63","21","3","
    <div class = 'grid-container'>
        <div class='header-text'> Friends </div>
        <div>
            Lucas
            <img width='150' style='border:2px black solid;' src='stims/img/CFD-AM-244-222-N.jpg'>
        </div>
        <div> &nbsp; + &nbsp; </div>
        <div>
            Henry
            <img width='150' style='border:2px black solid;' src='stims/img/CFD-WM-237-052-N.jpg'>
        </div>
        <div class='header-text'> &nbsp; </div>
    </div>
    ","null","3","true","5","stims/img/CFD-AM-244-222-N.jpg","Lucas","7","stims/img/CFD-WM-237-052-N.jpg","Henry","","",""
"","null","fixation","html-keyboard-response","134","506873","0.0-3.0-0.64","21","3","<div style = ""font-size:60px;""> + </div>","null","","","","","","","","","","",""
"","null","learning_trial","html-keyboard-response","135","509380","0.0-3.0-1.64","21","3","
    <div class = 'grid-container'>
        <div class='header-text'> Friends </div>
        <div>
            Vicky
            <img width='150' style='border:2px black solid;' src='stims/img/CFD-AF-229-160-N.jpg'>
        </div>
        <div> &nbsp; + &nbsp; </div>
        <div>
            Olivia
            <img width='150' style='border:2px black solid;' src='stims/img/CFD-WF-231-099-N.jpg'>
        </div>
        <div class='header-text'> &nbsp; </div>
    </div>
    ","null","3","true","10","stims/img/CFD-AF-229-160-N.jpg","Vicky","12","stims/img/CFD-WF-231-099-N.jpg","Olivia","","",""
"","null","fixation","html-keyboard-response","136","509887","0.0-3.0-0.65","21","3","<div style = ""font-size:60px;""> + </div>","null","","","","","","","","","","",""
"","null","learning_trial","html-keyboard-response","137","512394","0.0-3.0-1.65","21","3","
    <div class = 'grid-container'>
        <div class='header-text'> Friends </div>
        <div>
            Joseph
            <img width='150' style='border:2px black solid;' src='stims/img/CFD-LM-212-143-N.jpg'>
        </div>
        <div> &nbsp; + &nbsp; </div>
        <div>
            Olivia
            <img width='150' style='border:2px black solid;' src='stims/img/CFD-WF-231-099-N.jpg'>
        </div>
        <div class='header-text'> &nbsp; </div>
    </div>
    ","null","3","false","12","stims/img/CFD-WF-231-099-N.jpg","Olivia","13","stims/img/CFD-LM-212-143-N.jpg","Joseph","","",""
"","null","fixation","html-keyboard-response","138","512899","0.0-3.0-0.66","21","3","<div style = ""font-size:60px;""> + </div>","null","","","","","","","","","","",""
"","null","learning_trial","html-keyboard-response","139","515407","0.0-3.0-1.66","21","3","
    <div class = 'grid-container'>
        <div class='header-text'> Friends </div>
        <div>
            Camila
            <img width='150' style='border:2px black solid;' src='stims/img/CFD-LF-208-127-N.jpg'>
        </div>
        <div> &nbsp; + &nbsp; </div>
        <div>
            Ava
            <img width='150' style='border:2px black solid;' src='stims/img/CFD-BF-244-231-N.jpg'>
        </div>
        <div class='header-text'> &nbsp; </div>
    </div>
    ","null","3","true","3","stims/img/CFD-LF-208-127-N.jpg","Camila","4","stims/img/CFD-BF-244-231-N.jpg","Ava","","",""
"","null","fixation","html-keyboard-response","140","515908","0.0-3.0-0.67","21","3","<div style = ""font-size:60px;""> + </div>","null","","","","","","","","","","",""
"","null","learning_trial","html-keyboard-response","141","518414","0.0-3.0-1.67","21","3","
    <div class = 'grid-container'>
        <div class='header-text'> Friends </div>
        <div>
            Ethan
            <img width='150' style='border:2px black solid;' src='stims/img/CFD-AM-229-224-N.jpg'>
        </div>
        <div> &nbsp; + &nbsp; </div>
        <div>
            Madison
            <img width='150' style='border:2px black solid;' src='stims/img/CFD-BF-221-223-N.jpg'>
        </div>
        <div class='header-text'> &nbsp; </div>
    </div>
    ","null","3","true","9","stims/img/CFD-AM-229-224-N.jpg","Ethan","11","stims/img/CFD-BF-221-223-N.jpg","Madison","","",""
"","1408","break","html-keyboard-response","142","519823","0.0-3.0-2.67-0.67","21","3","If you'd like to take a break before continuing, 
    please do so now. <p>To continue, please press the spacebar.</p>"," ","","","","","","","","","","",""
"","null","fixation","html-keyboard-response","143","520329","0.0-3.0-0.68","21","3","<div style = ""font-size:60px;""> + </div>","null","","","","","","","","","","",""
"","null","learning_trial","html-keyboard-response","144","522836","0.0-3.0-1.68","21","3","
    <div class = 'grid-container'>
        <div class='header-text'> Friends </div>
        <div>
            Henry
            <img width='150' style='border:2px black solid;' src='stims/img/CFD-WM-237-052-N.jpg'>
        </div>
        <div> &nbsp; + &nbsp; </div>
        <div>
            Valentina
            <img width='150' style='border:2px black solid;' src='stims/img/CFD-LF-212-066-N.jpg'>
        </div>
        <div class='header-text'> &nbsp; </div>
    </div>
    ","null","4","false","6","stims/img/CFD-LF-212-066-N.jpg","Valentina","7","stims/img/CFD-WM-237-052-N.jpg","Henry","","",""
"","null","fixation","html-keyboard-response","145","523343","0.0-3.0-0.69","21","3","<div style = ""font-size:60px;""> + </div>","null","","","","","","","","","","",""
"","null","learning_trial","html-keyboard-response","146","525845","0.0-3.0-1.69","21","3","
    <div class = 'grid-container'>
        <div class='header-text'> Friends </div>
        <div>
            Ava
            <img width='150' style='border:2px black solid;' src='stims/img/CFD-BF-244-231-N.jpg'>
        </div>
        <div> &nbsp; + &nbsp; </div>
        <div>
            Valentina
            <img width='150' style='border:2px black solid;' src='stims/img/CFD-LF-212-066-N.jpg'>
        </div>
        <div class='header-text'> &nbsp; </div>
    </div>
    ","null","4","true","4","stims/img/CFD-BF-244-231-N.jpg","Ava","6","stims/img/CFD-LF-212-066-N.jpg","Valentina","","",""
"","null","fixation","html-keyboard-response","147","526351","0.0-3.0-0.70","21","3","<div style = ""font-size:60px;""> + </div>","null","","","","","","","","","","",""
"","null","learning_trial","html-keyboard-response","148","528856","0.0-3.0-1.70","21","3","
    <div class = 'grid-container'>
        <div class='header-text'> Friends </div>
        <div>
            Ava
            <img width='150' style='border:2px black solid;' src='stims/img/CFD-BF-244-231-N.jpg'>
        </div>
        <div> &nbsp; + &nbsp; </div>
        <div>
            Elizabeth
            <img width='150' style='border:2px black solid;' src='stims/img/CFD-WF-208-068-N.jpg'>
        </div>
        <div class='header-text'> &nbsp; </div>
    </div>
    ","null","4","false","2","stims/img/CFD-WF-208-068-N.jpg","Elizabeth","4","stims/img/CFD-BF-244-231-N.jpg","Ava","","",""
"","null","fixation","html-keyboard-response","149","529362","0.0-3.0-0.71","21","3","<div style = ""font-size:60px;""> + </div>","null","","","","","","","","","","",""
"","null","learning_trial","html-keyboard-response","150","531868","0.0-3.0-1.71","21","3","
    <div class = 'grid-container'>
        <div class='header-text'> Friends </div>
        <div>
            Elizabeth
            <img width='150' style='border:2px black solid;' src='stims/img/CFD-WF-208-068-N.jpg'>
        </div>
        <div> &nbsp; + &nbsp; </div>
        <div>
            Camila
            <img width='150' style='border:2px black solid;' src='stims/img/CFD-LF-208-127-N.jpg'>
        </div>
        <div class='header-text'> &nbsp; </div>
    </div>
    ","null","4","true","2","stims/img/CFD-WF-208-068-N.jpg","Elizabeth","3","stims/img/CFD-LF-208-127-N.jpg","Camila","","",""
"","null","fixation","html-keyboard-response","151","532375","0.0-3.0-0.72","21","3","<div style = ""font-size:60px;""> + </div>","null","","","","","","","","","","",""
"","null","learning_trial","html-keyboard-response","152","534881","0.0-3.0-1.72","21","3","
    <div class = 'grid-container'>
        <div class='header-text'> Friends </div>
        <div>
            Olivia
            <img width='150' style='border:2px black solid;' src='stims/img/CFD-WF-231-099-N.jpg'>
        </div>
        <div> &nbsp; + &nbsp; </div>
        <div>
            Madison
            <img width='150' style='border:2px black solid;' src='stims/img/CFD-BF-221-223-N.jpg'>
        </div>
        <div class='header-text'> &nbsp; </div>
    </div>
    ","null","4","false","11","stims/img/CFD-BF-221-223-N.jpg","Madison","12","stims/img/CFD-WF-231-099-N.jpg","Olivia","","",""
"","null","fixation","html-keyboard-response","153","535386","0.0-3.0-0.73","21","3","<div style = ""font-size:60px;""> + </div>","null","","","","","","","","","","",""
"","null","learning_trial","html-keyboard-response","154","537892","0.0-3.0-1.73","21","3","
    <div class = 'grid-container'>
        <div class='header-text'> Friends </div>
        <div>
            Olivia
            <img width='150' style='border:2px black solid;' src='stims/img/CFD-WF-231-099-N.jpg'>
        </div>
        <div> &nbsp; + &nbsp; </div>
        <div>
            Joseph
            <img width='150' style='border:2px black solid;' src='stims/img/CFD-LM-212-143-N.jpg'>
        </div>
        <div class='header-text'> &nbsp; </div>
    </div>
    ","null","4","true","12","stims/img/CFD-WF-231-099-N.jpg","Olivia","13","stims/img/CFD-LM-212-143-N.jpg","Joseph","","",""
"","null","fixation","html-keyboard-response","155","538399","0.0-3.0-0.74","21","3","<div style = ""font-size:60px;""> + </div>","null","","","","","","","","","","",""
"","null","learning_trial","html-keyboard-response","156","540905","0.0-3.0-1.74","21","3","
    <div class = 'grid-container'>
        <div class='header-text'> Friends </div>
        <div>
            Ayden
            <img width='150' style='border:2px black solid;' src='stims/img/CFD-BM-235-226-N.jpg'>
        </div>
        <div> &nbsp; + &nbsp; </div>
        <div>
            Christian
            <img width='150' style='border:2px black solid;' src='stims/img/CFD-BM-200-046-N.jpg'>
        </div>
        <div class='header-text'> &nbsp; </div>
    </div>
    ","null","4","false","1","stims/img/CFD-BM-200-046-N.jpg","Christian","8","stims/img/CFD-BM-235-226-N.jpg","Ayden","","",""
"","null","fixation","html-keyboard-response","157","541411","0.0-3.0-0.75","21","3","<div style = ""font-size:60px;""> + </div>","null","","","","","","","","","","",""
"","null","learning_trial","html-keyboard-response","158","543919","0.0-3.0-1.75","21","3","
    <div class = 'grid-container'>
        <div class='header-text'> Friends </div>
        <div>
            Olivia
            <img width='150' style='border:2px black solid;' src='stims/img/CFD-WF-231-099-N.jpg'>
        </div>
        <div> &nbsp; + &nbsp; </div>
        <div>
            Vicky
            <img width='150' style='border:2px black solid;' src='stims/img/CFD-AF-229-160-N.jpg'>
        </div>
        <div class='header-text'> &nbsp; </div>
    </div>
    ","null","4","false","10","stims/img/CFD-AF-229-160-N.jpg","Vicky","12","stims/img/CFD-WF-231-099-N.jpg","Olivia","","",""
"","null","fixation","html-keyboard-response","159","544425","0.0-3.0-0.76","21","3","<div style = ""font-size:60px;""> + </div>","null","","","","","","","","","","",""
"","null","learning_trial","html-keyboard-response","160","546932","0.0-3.0-1.76","21","3","
    <div class = 'grid-container'>
        <div class='header-text'> Friends </div>
        <div>
            Elizabeth
            <img width='150' style='border:2px black solid;' src='stims/img/CFD-WF-208-068-N.jpg'>
        </div>
        <div> &nbsp; + &nbsp; </div>
        <div>
            Christian
            <img width='150' style='border:2px black solid;' src='stims/img/CFD-BM-200-046-N.jpg'>
        </div>
        <div class='header-text'> &nbsp; </div>
    </div>
    ","null","4","false","1","stims/img/CFD-BM-200-046-N.jpg","Christian","2","stims/img/CFD-WF-208-068-N.jpg","Elizabeth","","",""
"","null","fixation","html-keyboard-response","161","547438","0.0-3.0-0.77","21","3","<div style = ""font-size:60px;""> + </div>","null","","","","","","","","","","",""
"","null","learning_trial","html-keyboard-response","162","549945","0.0-3.0-1.77","21","3","
    <div class = 'grid-container'>
        <div class='header-text'> Friends </div>
        <div>
            Madison
            <img width='150' style='border:2px black solid;' src='stims/img/CFD-BF-221-223-N.jpg'>
        </div>
        <div> &nbsp; + &nbsp; </div>
        <div>
            Ethan
            <img width='150' style='border:2px black solid;' src='stims/img/CFD-AM-229-224-N.jpg'>
        </div>
        <div class='header-text'> &nbsp; </div>
    </div>
    ","null","4","false","9","stims/img/CFD-AM-229-224-N.jpg","Ethan","11","stims/img/CFD-BF-221-223-N.jpg","Madison","","",""
"","null","fixation","html-keyboard-response","163","550452","0.0-3.0-0.78","21","3","<div style = ""font-size:60px;""> + </div>","null","","","","","","","","","","",""
"","null","learning_trial","html-keyboard-response","164","552958","0.0-3.0-1.78","21","3","
    <div class = 'grid-container'>
        <div class='header-text'> Friends </div>
        <div>
            Joseph
            <img width='150' style='border:2px black solid;' src='stims/img/CFD-LM-212-143-N.jpg'>
        </div>
        <div> &nbsp; + &nbsp; </div>
        <div>
            Madison
            <img width='150' style='border:2px black solid;' src='stims/img/CFD-BF-221-223-N.jpg'>
        </div>
        <div class='header-text'> &nbsp; </div>
    </div>
    ","null","4","false","11","stims/img/CFD-BF-221-223-N.jpg","Madison","13","stims/img/CFD-LM-212-143-N.jpg","Joseph","","",""
"","null","fixation","html-keyboard-response","165","553465","0.0-3.0-0.79","21","3","<div style = ""font-size:60px;""> + </div>","null","","","","","","","","","","",""
"","null","learning_trial","html-keyboard-response","166","555969","0.0-3.0-1.79","21","3","
    <div class = 'grid-container'>
        <div class='header-text'> Friends </div>
        <div>
            Ayden
            <img width='150' style='border:2px black solid;' src='stims/img/CFD-BM-235-226-N.jpg'>
        </div>
        <div> &nbsp; + &nbsp; </div>
        <div>
            Ethan
            <img width='150' style='border:2px black solid;' src='stims/img/CFD-AM-229-224-N.jpg'>
        </div>
        <div class='header-text'> &nbsp; </div>
    </div>
    ","null","4","true","8","stims/img/CFD-BM-235-226-N.jpg","Ayden","9","stims/img/CFD-AM-229-224-N.jpg","Ethan","","",""
"","null","fixation","html-keyboard-response","167","556476","0.0-3.0-0.80","21","3","<div style = ""font-size:60px;""> + </div>","null","","","","","","","","","","",""
"","null","learning_trial","html-keyboard-response","168","558980","0.0-3.0-1.80","21","3","
    <div class = 'grid-container'>
        <div class='header-text'> Friends </div>
        <div>
            Henry
            <img width='150' style='border:2px black solid;' src='stims/img/CFD-WM-237-052-N.jpg'>
        </div>
        <div> &nbsp; + &nbsp; </div>
        <div>
            Lucas
            <img width='150' style='border:2px black solid;' src='stims/img/CFD-AM-244-222-N.jpg'>
        </div>
        <div class='header-text'> &nbsp; </div>
    </div>
    ","null","4","false","5","stims/img/CFD-AM-244-222-N.jpg","Lucas","7","stims/img/CFD-WM-237-052-N.jpg","Henry","","",""
"","null","fixation","html-keyboard-response","169","559486","0.0-3.0-0.81","21","3","<div style = ""font-size:60px;""> + </div>","null","","","","","","","","","","",""
"","null","learning_trial","html-keyboard-response","170","561993","0.0-3.0-1.81","21","3","
    <div class = 'grid-container'>
        <div class='header-text'> Friends </div>
        <div>
            Vicky
            <img width='150' style='border:2px black solid;' src='stims/img/CFD-AF-229-160-N.jpg'>
        </div>
        <div> &nbsp; + &nbsp; </div>
        <div>
            Ayden
            <img width='150' style='border:2px black solid;' src='stims/img/CFD-BM-235-226-N.jpg'>
        </div>
        <div class='header-text'> &nbsp; </div>
    </div>
    ","null","4","false","8","stims/img/CFD-BM-235-226-N.jpg","Ayden","10","stims/img/CFD-AF-229-160-N.jpg","Vicky","","",""
"","null","fixation","html-keyboard-response","171","562500","0.0-3.0-0.82","21","3","<div style = ""font-size:60px;""> + </div>","null","","","","","","","","","","",""
"","null","learning_trial","html-keyboard-response","172","565007","0.0-3.0-1.82","21","3","
    <div class = 'grid-container'>
        <div class='header-text'> Friends </div>
        <div>
            Camila
            <img width='150' style='border:2px black solid;' src='stims/img/CFD-LF-208-127-N.jpg'>
        </div>
        <div> &nbsp; + &nbsp; </div>
        <div>
            Lucas
            <img width='150' style='border:2px black solid;' src='stims/img/CFD-AM-244-222-N.jpg'>
        </div>
        <div class='header-text'> &nbsp; </div>
    </div>
    ","null","4","true","3","stims/img/CFD-LF-208-127-N.jpg","Camila","5","stims/img/CFD-AM-244-222-N.jpg","Lucas","","",""
"","null","fixation","html-keyboard-response","173","565513","0.0-3.0-0.83","21","3","<div style = ""font-size:60px;""> + </div>","null","","","","","","","","","","",""
"","null","learning_trial","html-keyboard-response","174","568021","0.0-3.0-1.83","21","3","
    <div class = 'grid-container'>
        <div class='header-text'> Friends </div>
        <div>
            Ava
            <img width='150' style='border:2px black solid;' src='stims/img/CFD-BF-244-231-N.jpg'>
        </div>
        <div> &nbsp; + &nbsp; </div>
        <div>
            Camila
            <img width='150' style='border:2px black solid;' src='stims/img/CFD-LF-208-127-N.jpg'>
        </div>
        <div class='header-text'> &nbsp; </div>
    </div>
    ","null","4","false","3","stims/img/CFD-LF-208-127-N.jpg","Camila","4","stims/img/CFD-BF-244-231-N.jpg","Ava","","",""
"","null","fixation","html-keyboard-response","175","568527","0.0-3.0-0.84","21","3","<div style = ""font-size:60px;""> + </div>","null","","","","","","","","","","",""
"","null","learning_trial","html-keyboard-response","176","571034","0.0-3.0-1.84","21","3","
    <div class = 'grid-container'>
        <div class='header-text'> Friends </div>
        <div>
            Ava
            <img width='150' style='border:2px black solid;' src='stims/img/CFD-BF-244-231-N.jpg'>
        </div>
        <div> &nbsp; + &nbsp; </div>
        <div>
            Lucas
            <img width='150' style='border:2px black solid;' src='stims/img/CFD-AM-244-222-N.jpg'>
        </div>
        <div class='header-text'> &nbsp; </div>
    </div>
    ","null","4","true","4","stims/img/CFD-BF-244-231-N.jpg","Ava","5","stims/img/CFD-AM-244-222-N.jpg","Lucas","","",""
"","1201","break","html-keyboard-response","177","572235","0.0-3.0-2.84-0.84","21","3","If you'd like to take a break before continuing, 
    please do so now. <p>To continue, please press the spacebar.</p>"," ","","","","","","","","","","",""
"","null","fixation","html-keyboard-response","178","572738","0.0-3.0-0.85","21","3","<div style = ""font-size:60px;""> + </div>","null","","","","","","","","","","",""
"","null","learning_trial","html-keyboard-response","179","575245","0.0-3.0-1.85","21","3","
    <div class = 'grid-container'>
        <div class='header-text'> Friends </div>
        <div>
            Elizabeth
            <img width='150' style='border:2px black solid;' src='stims/img/CFD-WF-208-068-N.jpg'>
        </div>
        <div> &nbsp; + &nbsp; </div>
        <div>
            Camila
            <img width='150' style='border:2px black solid;' src='stims/img/CFD-LF-208-127-N.jpg'>
        </div>
        <div class='header-text'> &nbsp; </div>
    </div>
    ","null","5","true","2","stims/img/CFD-WF-208-068-N.jpg","Elizabeth","3","stims/img/CFD-LF-208-127-N.jpg","Camila","","",""
"","null","fixation","html-keyboard-response","180","575751","0.0-3.0-0.86","21","3","<div style = ""font-size:60px;""> + </div>","null","","","","","","","","","","",""
"","null","learning_trial","html-keyboard-response","181","578256","0.0-3.0-1.86","21","3","
    <div class = 'grid-container'>
        <div class='header-text'> Friends </div>
        <div>
            Christian
            <img width='150' style='border:2px black solid;' src='stims/img/CFD-BM-200-046-N.jpg'>
        </div>
        <div> &nbsp; + &nbsp; </div>
        <div>
            Elizabeth
            <img width='150' style='border:2px black solid;' src='stims/img/CFD-WF-208-068-N.jpg'>
        </div>
        <div class='header-text'> &nbsp; </div>
    </div>
    ","null","5","true","1","stims/img/CFD-BM-200-046-N.jpg","Christian","2","stims/img/CFD-WF-208-068-N.jpg","Elizabeth","","",""
"","null","fixation","html-keyboard-response","182","578763","0.0-3.0-0.87","21","3","<div style = ""font-size:60px;""> + </div>","null","","","","","","","","","","",""
"","null","learning_trial","html-keyboard-response","183","581269","0.0-3.0-1.87","21","3","
    <div class = 'grid-container'>
        <div class='header-text'> Friends </div>
        <div>
            Elizabeth
            <img width='150' style='border:2px black solid;' src='stims/img/CFD-WF-208-068-N.jpg'>
        </div>
        <div> &nbsp; + &nbsp; </div>
        <div>
            Ava
            <img width='150' style='border:2px black solid;' src='stims/img/CFD-BF-244-231-N.jpg'>
        </div>
        <div class='header-text'> &nbsp; </div>
    </div>
    ","null","5","true","2","stims/img/CFD-WF-208-068-N.jpg","Elizabeth","4","stims/img/CFD-BF-244-231-N.jpg","Ava","","",""
"","null","fixation","html-keyboard-response","184","581775","0.0-3.0-0.88","21","3","<div style = ""font-size:60px;""> + </div>","null","","","","","","","","","","",""
"","null","learning_trial","html-keyboard-response","185","584282","0.0-3.0-1.88","21","3","
    <div class = 'grid-container'>
        <div class='header-text'> Friends </div>
        <div>
            Olivia
            <img width='150' style='border:2px black solid;' src='stims/img/CFD-WF-231-099-N.jpg'>
        </div>
        <div> &nbsp; + &nbsp; </div>
        <div>
            Madison
            <img width='150' style='border:2px black solid;' src='stims/img/CFD-BF-221-223-N.jpg'>
        </div>
        <div class='header-text'> &nbsp; </div>
    </div>
    ","null","5","false","11","stims/img/CFD-BF-221-223-N.jpg","Madison","12","stims/img/CFD-WF-231-099-N.jpg","Olivia","","",""
"","null","fixation","html-keyboard-response","186","584789","0.0-3.0-0.89","21","3","<div style = ""font-size:60px;""> + </div>","null","","","","","","","","","","",""
"","null","learning_trial","html-keyboard-response","187","587296","0.0-3.0-1.89","21","3","
    <div class = 'grid-container'>
        <div class='header-text'> Friends </div>
        <div>
            Ayden
            <img width='150' style='border:2px black solid;' src='stims/img/CFD-BM-235-226-N.jpg'>
        </div>
        <div> &nbsp; + &nbsp; </div>
        <div>
            Ethan
            <img width='150' style='border:2px black solid;' src='stims/img/CFD-AM-229-224-N.jpg'>
        </div>
        <div class='header-text'> &nbsp; </div>
    </div>
    ","null","5","true","8","stims/img/CFD-BM-235-226-N.jpg","Ayden","9","stims/img/CFD-AM-229-224-N.jpg","Ethan","","",""
"","null","fixation","html-keyboard-response","188","587802","0.0-3.0-0.90","21","3","<div style = ""font-size:60px;""> + </div>","null","","","","","","","","","","",""
"","null","learning_trial","html-keyboard-response","189","590309","0.0-3.0-1.90","21","3","
    <div class = 'grid-container'>
        <div class='header-text'> Friends </div>
        <div>
            Henry
            <img width='150' style='border:2px black solid;' src='stims/img/CFD-WM-237-052-N.jpg'>
        </div>
        <div> &nbsp; + &nbsp; </div>
        <div>
            Lucas
            <img width='150' style='border:2px black solid;' src='stims/img/CFD-AM-244-222-N.jpg'>
        </div>
        <div class='header-text'> &nbsp; </div>
    </div>
    ","null","5","false","5","stims/img/CFD-AM-244-222-N.jpg","Lucas","7","stims/img/CFD-WM-237-052-N.jpg","Henry","","",""
"","null","fixation","html-keyboard-response","190","590816","0.0-3.0-0.91","21","3","<div style = ""font-size:60px;""> + </div>","null","","","","","","","","","","",""
"","null","learning_trial","html-keyboard-response","191","593323","0.0-3.0-1.91","21","3","
    <div class = 'grid-container'>
        <div class='header-text'> Friends </div>
        <div>
            Camila
            <img width='150' style='border:2px black solid;' src='stims/img/CFD-LF-208-127-N.jpg'>
        </div>
        <div> &nbsp; + &nbsp; </div>
        <div>
            Lucas
            <img width='150' style='border:2px black solid;' src='stims/img/CFD-AM-244-222-N.jpg'>
        </div>
        <div class='header-text'> &nbsp; </div>
    </div>
    ","null","5","true","3","stims/img/CFD-LF-208-127-N.jpg","Camila","5","stims/img/CFD-AM-244-222-N.jpg","Lucas","","",""
"","null","fixation","html-keyboard-response","192","593828","0.0-3.0-0.92","21","3","<div style = ""font-size:60px;""> + </div>","null","","","","","","","","","","",""
"","null","learning_trial","html-keyboard-response","193","596335","0.0-3.0-1.92","21","3","
    <div class = 'grid-container'>
        <div class='header-text'> Friends </div>
        <div>
            Ayden
            <img width='150' style='border:2px black solid;' src='stims/img/CFD-BM-235-226-N.jpg'>
        </div>
        <div> &nbsp; + &nbsp; </div>
        <div>
            Vicky
            <img width='150' style='border:2px black solid;' src='stims/img/CFD-AF-229-160-N.jpg'>
        </div>
        <div class='header-text'> &nbsp; </div>
    </div>
    ","null","5","true","8","stims/img/CFD-BM-235-226-N.jpg","Ayden","10","stims/img/CFD-AF-229-160-N.jpg","Vicky","","",""
"","null","fixation","html-keyboard-response","194","596841","0.0-3.0-0.93","21","3","<div style = ""font-size:60px;""> + </div>","null","","","","","","","","","","",""
"","null","learning_trial","html-keyboard-response","195","599349","0.0-3.0-1.93","21","3","
    <div class = 'grid-container'>
        <div class='header-text'> Friends </div>
        <div>
            Madison
            <img width='150' style='border:2px black solid;' src='stims/img/CFD-BF-221-223-N.jpg'>
        </div>
        <div> &nbsp; + &nbsp; </div>
        <div>
            Joseph
            <img width='150' style='border:2px black solid;' src='stims/img/CFD-LM-212-143-N.jpg'>
        </div>
        <div class='header-text'> &nbsp; </div>
    </div>
    ","null","5","true","11","stims/img/CFD-BF-221-223-N.jpg","Madison","13","stims/img/CFD-LM-212-143-N.jpg","Joseph","","",""
"","null","fixation","html-keyboard-response","196","599855","0.0-3.0-0.94","21","3","<div style = ""font-size:60px;""> + </div>","null","","","","","","","","","","",""
"","null","learning_trial","html-keyboard-response","197","602361","0.0-3.0-1.94","21","3","
    <div class = 'grid-container'>
        <div class='header-text'> Friends </div>
        <div>
            Valentina
            <img width='150' style='border:2px black solid;' src='stims/img/CFD-LF-212-066-N.jpg'>
        </div>
        <div> &nbsp; + &nbsp; </div>
        <div>
            Henry
            <img width='150' style='border:2px black solid;' src='stims/img/CFD-WM-237-052-N.jpg'>
        </div>
        <div class='header-text'> &nbsp; </div>
    </div>
    ","null","5","true","6","stims/img/CFD-LF-212-066-N.jpg","Valentina","7","stims/img/CFD-WM-237-052-N.jpg","Henry","","",""
"","null","fixation","html-keyboard-response","198","602863","0.0-3.0-0.95","21","3","<div style = ""font-size:60px;""> + </div>","null","","","","","","","","","","",""
"","null","learning_trial","html-keyboard-response","199","605370","0.0-3.0-1.95","21","3","
    <div class = 'grid-container'>
        <div class='header-text'> Friends </div>
        <div>
            Valentina
            <img width='150' style='border:2px black solid;' src='stims/img/CFD-LF-212-066-N.jpg'>
        </div>
        <div> &nbsp; + &nbsp; </div>
        <div>
            Ava
            <img width='150' style='border:2px black solid;' src='stims/img/CFD-BF-244-231-N.jpg'>
        </div>
        <div class='header-text'> &nbsp; </div>
    </div>
    ","null","5","false","4","stims/img/CFD-BF-244-231-N.jpg","Ava","6","stims/img/CFD-LF-212-066-N.jpg","Valentina","","",""
"","null","fixation","html-keyboard-response","200","605876","0.0-3.0-0.96","21","3","<div style = ""font-size:60px;""> + </div>","null","","","","","","","","","","",""
"","null","learning_trial","html-keyboard-response","201","608378","0.0-3.0-1.96","21","3","
    <div class = 'grid-container'>
        <div class='header-text'> Friends </div>
        <div>
            Vicky
            <img width='150' style='border:2px black solid;' src='stims/img/CFD-AF-229-160-N.jpg'>
        </div>
        <div> &nbsp; + &nbsp; </div>
        <div>
            Olivia
            <img width='150' style='border:2px black solid;' src='stims/img/CFD-WF-231-099-N.jpg'>
        </div>
        <div class='header-text'> &nbsp; </div>
    </div>
    ","null","5","true","10","stims/img/CFD-AF-229-160-N.jpg","Vicky","12","stims/img/CFD-WF-231-099-N.jpg","Olivia","","",""
"","null","fixation","html-keyboard-response","202","608884","0.0-3.0-0.97","21","3","<div style = ""font-size:60px;""> + </div>","null","","","","","","","","","","",""
"","null","learning_trial","html-keyboard-response","203","611390","0.0-3.0-1.97","21","3","
    <div class = 'grid-container'>
        <div class='header-text'> Friends </div>
        <div>
            Madison
            <img width='150' style='border:2px black solid;' src='stims/img/CFD-BF-221-223-N.jpg'>
        </div>
        <div> &nbsp; + &nbsp; </div>
        <div>
            Ethan
            <img width='150' style='border:2px black solid;' src='stims/img/CFD-AM-229-224-N.jpg'>
        </div>
        <div class='header-text'> &nbsp; </div>
    </div>
    ","null","5","false","9","stims/img/CFD-AM-229-224-N.jpg","Ethan","11","stims/img/CFD-BF-221-223-N.jpg","Madison","","",""
"","null","fixation","html-keyboard-response","204","611896","0.0-3.0-0.98","21","3","<div style = ""font-size:60px;""> + </div>","null","","","","","","","","","","",""
"","null","learning_trial","html-keyboard-response","205","614403","0.0-3.0-1.98","21","3","
    <div class = 'grid-container'>
        <div class='header-text'> Friends </div>
        <div>
            Ava
            <img width='150' style='border:2px black solid;' src='stims/img/CFD-BF-244-231-N.jpg'>
        </div>
        <div> &nbsp; + &nbsp; </div>
        <div>
            Camila
            <img width='150' style='border:2px black solid;' src='stims/img/CFD-LF-208-127-N.jpg'>
        </div>
        <div class='header-text'> &nbsp; </div>
    </div>
    ","null","5","false","3","stims/img/CFD-LF-208-127-N.jpg","Camila","4","stims/img/CFD-BF-244-231-N.jpg","Ava","","",""
"","null","fixation","html-keyboard-response","206","614910","0.0-3.0-0.99","21","3","<div style = ""font-size:60px;""> + </div>","null","","","","","","","","","","",""
"","null","learning_trial","html-keyboard-response","207","617418","0.0-3.0-1.99","21","3","
    <div class = 'grid-container'>
        <div class='header-text'> Friends </div>
        <div>
            Christian
            <img width='150' style='border:2px black solid;' src='stims/img/CFD-BM-200-046-N.jpg'>
        </div>
        <div> &nbsp; + &nbsp; </div>
        <div>
            Ayden
            <img width='150' style='border:2px black solid;' src='stims/img/CFD-BM-235-226-N.jpg'>
        </div>
        <div class='header-text'> &nbsp; </div>
    </div>
    ","null","5","true","1","stims/img/CFD-BM-200-046-N.jpg","Christian","8","stims/img/CFD-BM-235-226-N.jpg","Ayden","","",""
"","null","fixation","html-keyboard-response","208","617923","0.0-3.0-0.100","21","3","<div style = ""font-size:60px;""> + </div>","null","","","","","","","","","","",""
"","null","learning_trial","html-keyboard-response","209","620431","0.0-3.0-1.100","21","3","
    <div class = 'grid-container'>
        <div class='header-text'> Friends </div>
        <div>
            Ava
            <img width='150' style='border:2px black solid;' src='stims/img/CFD-BF-244-231-N.jpg'>
        </div>
        <div> &nbsp; + &nbsp; </div>
        <div>
            Lucas
            <img width='150' style='border:2px black solid;' src='stims/img/CFD-AM-244-222-N.jpg'>
        </div>
        <div class='header-text'> &nbsp; </div>
    </div>
    ","null","5","true","4","stims/img/CFD-BF-244-231-N.jpg","Ava","5","stims/img/CFD-AM-244-222-N.jpg","Lucas","","",""
"","null","fixation","html-keyboard-response","210","620936","0.0-3.0-0.101","21","3","<div style = ""font-size:60px;""> + </div>","null","","","","","","","","","","",""
"","null","learning_trial","html-keyboard-response","211","623439","0.0-3.0-1.101","21","3","
    <div class = 'grid-container'>
        <div class='header-text'> Friends </div>
        <div>
            Olivia
            <img width='150' style='border:2px black solid;' src='stims/img/CFD-WF-231-099-N.jpg'>
        </div>
        <div> &nbsp; + &nbsp; </div>
        <div>
            Joseph
            <img width='150' style='border:2px black solid;' src='stims/img/CFD-LM-212-143-N.jpg'>
        </div>
        <div class='header-text'> &nbsp; </div>
    </div>
    ","null","5","true","12","stims/img/CFD-WF-231-099-N.jpg","Olivia","13","stims/img/CFD-LM-212-143-N.jpg","Joseph","","",""
"","1415","break","html-keyboard-response","212","624856","0.0-3.0-2.101-0.101","21","3","If you'd like to take a break before continuing, 
    please do so now. <p>To continue, please press the spacebar.</p>"," ","","","","","","","","","","",""
"","null","fixation","html-keyboard-response","213","625362","0.0-3.0-0.102","21","3","<div style = ""font-size:60px;""> + </div>","null","","","","","","","","","","",""
"","null","learning_trial","html-keyboard-response","214","627868","0.0-3.0-1.102","21","3","
    <div class = 'grid-container'>
        <div class='header-text'> Friends </div>
        <div>
            Henry
            <img width='150' style='border:2px black solid;' src='stims/img/CFD-WM-237-052-N.jpg'>
        </div>
        <div> &nbsp; + &nbsp; </div>
        <div>
            Valentina
            <img width='150' style='border:2px black solid;' src='stims/img/CFD-LF-212-066-N.jpg'>
        </div>
        <div class='header-text'> &nbsp; </div>
    </div>
    ","null","6","false","6","stims/img/CFD-LF-212-066-N.jpg","Valentina","7","stims/img/CFD-WM-237-052-N.jpg","Henry","","",""
"","null","fixation","html-keyboard-response","215","628375","0.0-3.0-0.103","21","3","<div style = ""font-size:60px;""> + </div>","null","","","","","","","","","","",""
"","null","learning_trial","html-keyboard-response","216","630882","0.0-3.0-1.103","21","3","
    <div class = 'grid-container'>
        <div class='header-text'> Friends </div>
        <div>
            Lucas
            <img width='150' style='border:2px black solid;' src='stims/img/CFD-AM-244-222-N.jpg'>
        </div>
        <div> &nbsp; + &nbsp; </div>
        <div>
            Camila
            <img width='150' style='border:2px black solid;' src='stims/img/CFD-LF-208-127-N.jpg'>
        </div>
        <div class='header-text'> &nbsp; </div>
    </div>
    ","null","6","false","3","stims/img/CFD-LF-208-127-N.jpg","Camila","5","stims/img/CFD-AM-244-222-N.jpg","Lucas","","",""
"","null","fixation","html-keyboard-response","217","631389","0.0-3.0-0.104","21","3","<div style = ""font-size:60px;""> + </div>","null","","","","","","","","","","",""
"","null","learning_trial","html-keyboard-response","218","633893","0.0-3.0-1.104","21","3","
    <div class = 'grid-container'>
        <div class='header-text'> Friends </div>
        <div>
            Elizabeth
            <img width='150' style='border:2px black solid;' src='stims/img/CFD-WF-208-068-N.jpg'>
        </div>
        <div> &nbsp; + &nbsp; </div>
        <div>
            Camila
            <img width='150' style='border:2px black solid;' src='stims/img/CFD-LF-208-127-N.jpg'>
        </div>
        <div class='header-text'> &nbsp; </div>
    </div>
    ","null","6","true","2","stims/img/CFD-WF-208-068-N.jpg","Elizabeth","3","stims/img/CFD-LF-208-127-N.jpg","Camila","","",""
"","null","fixation","html-keyboard-response","219","634397","0.0-3.0-0.105","21","3","<div style = ""font-size:60px;""> + </div>","null","","","","","","","","","","",""
"","null","learning_trial","html-keyboard-response","220","636903","0.0-3.0-1.105","21","3","
    <div class = 'grid-container'>
        <div class='header-text'> Friends </div>
        <div>
            Lucas
            <img width='150' style='border:2px black solid;' src='stims/img/CFD-AM-244-222-N.jpg'>
        </div>
        <div> &nbsp; + &nbsp; </div>
        <div>
            Henry
            <img width='150' style='border:2px black solid;' src='stims/img/CFD-WM-237-052-N.jpg'>
        </div>
        <div class='header-text'> &nbsp; </div>
    </div>
    ","null","6","true","5","stims/img/CFD-AM-244-222-N.jpg","Lucas","7","stims/img/CFD-WM-237-052-N.jpg","Henry","","",""
"","null","fixation","html-keyboard-response","221","637409","0.0-3.0-0.106","21","3","<div style = ""font-size:60px;""> + </div>","null","","","","","","","","","","",""
"","null","learning_trial","html-keyboard-response","222","639916","0.0-3.0-1.106","21","3","
    <div class = 'grid-container'>
        <div class='header-text'> Friends </div>
        <div>
            Lucas
            <img width='150' style='border:2px black solid;' src='stims/img/CFD-AM-244-222-N.jpg'>
        </div>
        <div> &nbsp; + &nbsp; </div>
        <div>
            Ava
            <img width='150' style='border:2px black solid;' src='stims/img/CFD-BF-244-231-N.jpg'>
        </div>
        <div class='header-text'> &nbsp; </div>
    </div>
    ","null","6","false","4","stims/img/CFD-BF-244-231-N.jpg","Ava","5","stims/img/CFD-AM-244-222-N.jpg","Lucas","","",""
"","null","fixation","html-keyboard-response","223","640420","0.0-3.0-0.107","21","3","<div style = ""font-size:60px;""> + </div>","null","","","","","","","","","","",""
"","null","learning_trial","html-keyboard-response","224","642927","0.0-3.0-1.107","21","3","
    <div class = 'grid-container'>
        <div class='header-text'> Friends </div>
        <div>
            Camila
            <img width='150' style='border:2px black solid;' src='stims/img/CFD-LF-208-127-N.jpg'>
        </div>
        <div> &nbsp; + &nbsp; </div>
        <div>
            Ava
            <img width='150' style='border:2px black solid;' src='stims/img/CFD-BF-244-231-N.jpg'>
        </div>
        <div class='header-text'> &nbsp; </div>
    </div>
    ","null","6","true","3","stims/img/CFD-LF-208-127-N.jpg","Camila","4","stims/img/CFD-BF-244-231-N.jpg","Ava","","",""
"","null","fixation","html-keyboard-response","225","643434","0.0-3.0-0.108","21","3","<div style = ""font-size:60px;""> + </div>","null","","","","","","","","","","",""
"","null","learning_trial","html-keyboard-response","226","645941","0.0-3.0-1.108","21","3","
    <div class = 'grid-container'>
        <div class='header-text'> Friends </div>
        <div>
            Ethan
            <img width='150' style='border:2px black solid;' src='stims/img/CFD-AM-229-224-N.jpg'>
        </div>
        <div> &nbsp; + &nbsp; </div>
        <div>
            Ayden
            <img width='150' style='border:2px black solid;' src='stims/img/CFD-BM-235-226-N.jpg'>
        </div>
        <div class='header-text'> &nbsp; </div>
    </div>
    ","null","6","false","8","stims/img/CFD-BM-235-226-N.jpg","Ayden","9","stims/img/CFD-AM-229-224-N.jpg","Ethan","","",""
"","null","fixation","html-keyboard-response","227","646442","0.0-3.0-0.109","21","3","<div style = ""font-size:60px;""> + </div>","null","","","","","","","","","","",""
"","null","learning_trial","html-keyboard-response","228","648947","0.0-3.0-1.109","21","3","
    <div class = 'grid-container'>
        <div class='header-text'> Friends </div>
        <div>
            Madison
            <img width='150' style='border:2px black solid;' src='stims/img/CFD-BF-221-223-N.jpg'>
        </div>
        <div> &nbsp; + &nbsp; </div>
        <div>
            Joseph
            <img width='150' style='border:2px black solid;' src='stims/img/CFD-LM-212-143-N.jpg'>
        </div>
        <div class='header-text'> &nbsp; </div>
    </div>
    ","null","6","true","11","stims/img/CFD-BF-221-223-N.jpg","Madison","13","stims/img/CFD-LM-212-143-N.jpg","Joseph","","",""
"","null","fixation","html-keyboard-response","229","649454","0.0-3.0-0.110","21","3","<div style = ""font-size:60px;""> + </div>","null","","","","","","","","","","",""
"","null","learning_trial","html-keyboard-response","230","651957","0.0-3.0-1.110","21","3","
    <div class = 'grid-container'>
        <div class='header-text'> Friends </div>
        <div>
            Ethan
            <img width='150' style='border:2px black solid;' src='stims/img/CFD-AM-229-224-N.jpg'>
        </div>
        <div> &nbsp; + &nbsp; </div>
        <div>
            Madison
            <img width='150' style='border:2px black solid;' src='stims/img/CFD-BF-221-223-N.jpg'>
        </div>
        <div class='header-text'> &nbsp; </div>
    </div>
    ","null","6","true","9","stims/img/CFD-AM-229-224-N.jpg","Ethan","11","stims/img/CFD-BF-221-223-N.jpg","Madison","","",""
"","null","fixation","html-keyboard-response","231","652460","0.0-3.0-0.111","21","3","<div style = ""font-size:60px;""> + </div>","null","","","","","","","","","","",""
"","null","learning_trial","html-keyboard-response","232","654967","0.0-3.0-1.111","21","3","
    <div class = 'grid-container'>
        <div class='header-text'> Friends </div>
        <div>
            Madison
            <img width='150' style='border:2px black solid;' src='stims/img/CFD-BF-221-223-N.jpg'>
        </div>
        <div> &nbsp; + &nbsp; </div>
        <div>
            Olivia
            <img width='150' style='border:2px black solid;' src='stims/img/CFD-WF-231-099-N.jpg'>
        </div>
        <div class='header-text'> &nbsp; </div>
    </div>
    ","null","6","true","11","stims/img/CFD-BF-221-223-N.jpg","Madison","12","stims/img/CFD-WF-231-099-N.jpg","Olivia","","",""
"","null","fixation","html-keyboard-response","233","655474","0.0-3.0-0.112","21","3","<div style = ""font-size:60px;""> + </div>","null","","","","","","","","","","",""
"","null","learning_trial","html-keyboard-response","234","657981","0.0-3.0-1.112","21","3","
    <div class = 'grid-container'>
        <div class='header-text'> Friends </div>
        <div>
            Olivia
            <img width='150' style='border:2px black solid;' src='stims/img/CFD-WF-231-099-N.jpg'>
        </div>
        <div> &nbsp; + &nbsp; </div>
        <div>
            Vicky
            <img width='150' style='border:2px black solid;' src='stims/img/CFD-AF-229-160-N.jpg'>
        </div>
        <div class='header-text'> &nbsp; </div>
    </div>
