"view_history","rt","trial_purpose","trial_type","trial_index","time_elapsed","internal_node_id","sub_id","bonus","stimulus","response","rep","display_left","from_id","from_face","from_name","to_id","to_face","to_name","friendship","correct","slider_start"
"[{""page_index"":0,""viewing_time"":1538}]","1538","confirm_correct","instructions","0","1540","0.0-0.0","20","3","","","","","","","","","","","","",""
"[{""page_index"":0,""viewing_time"":25600},{""page_index"":1,""viewing_time"":3017},{""page_index"":2,""viewing_time"":1500}]","30117","instructions","instructions","1","31658","0.0-1.0","20","3","","","","","","","","","","","","",""
"[{""page_index"":0,""viewing_time"":1497},{""page_index"":1,""viewing_time"":1567},{""page_index"":2,""viewing_time"":11717},{""page_index"":3,""viewing_time"":3417}]","18199","instructions","instructions","2","49858","0.0-2.0","20","3","","","","","","","","","","","","",""
"","null","fixation","html-keyboard-response","3","50364","0.0-3.0-0.0","20","3","<div style = ""font-size:60px;""> + </div>","null","","","","","","","","","","",""
"","null","learning_trial","html-keyboard-response","4","52873","0.0-3.0-1.0","20","3","
    <div class = 'grid-container'>
        <div class='header-text'> Friends </div>
        <div>
            Amy
            <img width='150' style='border:2px black solid;' src='stims/img/CFD-LF-225-164-N.jpg'>
        </div>
        <div> &nbsp; + &nbsp; </div>
        <div>
            Emma
            <img width='150' style='border:2px black solid;' src='stims/img/CFD-AF-211-066-N.jpg'>
        </div>
        <div class='header-text'> &nbsp; </div>
    </div>
    ","null","0","true","8","stims/img/CFD-LF-225-164-N.jpg","Amy","9","stims/img/CFD-AF-211-066-N.jpg","Emma","","",""
"","null","fixation","html-keyboard-response","5","53381","0.0-3.0-0.1","20","3","<div style = ""font-size:60px;""> + </div>","null","","","","","","","","","","",""
"","null","learning_trial","html-keyboard-response","6","55888","0.0-3.0-1.1","20","3","
    <div class = 'grid-container'>
        <div class='header-text'> Friends </div>
        <div>
            Mia
            <img width='150' style='border:2px black solid;' src='stims/img/CFD-BF-216-132-N.jpg'>
        </div>
        <div> &nbsp; + &nbsp; </div>
        <div>
            Sophia
            <img width='150' style='border:2px black solid;' src='stims/img/CFD-WF-219-038-N.jpg'>
        </div>
        <div class='header-text'> &nbsp; </div>
    </div>
    ","null","0","true","3","stims/img/CFD-BF-216-132-N.jpg","Mia","5","stims/img/CFD-WF-219-038-N.jpg","Sophia","","",""
"","null","fixation","html-keyboard-response","7","56396","0.0-3.0-0.2","20","3","<div style = ""font-size:60px;""> + </div>","null","","","","","","","","","","",""
"","null","learning_trial","html-keyboard-response","8","58906","0.0-3.0-1.2","20","3","
    <div class = 'grid-container'>
        <div class='header-text'> Friends </div>
        <div>
            Christopher
            <img width='150' style='border:2px black solid;' src='stims/img/CFD-LM-223-175-N.jpg'>
        </div>
        <div> &nbsp; + &nbsp; </div>
        <div>
            Emily
            <img width='150' style='border:2px black solid;' src='stims/img/CFD-LF-251-057-N.jpg'>
        </div>
        <div class='header-text'> &nbsp; </div>
    </div>
    ","null","0","false","1","stims/img/CFD-LF-251-057-N.jpg","Emily","2","stims/img/CFD-LM-223-175-N.jpg","Christopher","","",""
"","null","fixation","html-keyboard-response","9","59416","0.0-3.0-0.3","20","3","<div style = ""font-size:60px;""> + </div>","null","","","","","","","","","","",""
"","null","learning_trial","html-keyboard-response","10","61925","0.0-3.0-1.3","20","3","
    <div class = 'grid-container'>
        <div class='header-text'> Friends </div>
        <div>
            Mia
            <img width='150' style='border:2px black solid;' src='stims/img/CFD-BF-216-132-N.jpg'>
        </div>
        <div> &nbsp; + &nbsp; </div>
        <div>
            Matthew
            <img width='150' style='border:2px black solid;' src='stims/img/CFD-WM-230-131-N.jpg'>
        </div>
        <div class='header-text'> &nbsp; </div>
    </div>
    ","null","0","true","3","stims/img/CFD-BF-216-132-N.jpg","Mia","4","stims/img/CFD-WM-230-131-N.jpg","Matthew","","",""
"","null","fixation","html-keyboard-response","11","62432","0.0-3.0-0.4","20","3","<div style = ""font-size:60px;""> + </div>","null","","","","","","","","","","",""
"","null","learning_trial","html-keyboard-response","12","64937","0.0-3.0-1.4","20","3","
    <div class = 'grid-container'>
        <div class='header-text'> Friends </div>
        <div>
            Matthew
            <img width='150' style='border:2px black solid;' src='stims/img/CFD-WM-230-131-N.jpg'>
        </div>
        <div> &nbsp; + &nbsp; </div>
        <div>
            Isaiah
            <img width='150' style='border:2px black solid;' src='stims/img/CFD-BM-207-024-N.jpg'>
        </div>
        <div class='header-text'> &nbsp; </div>
    </div>
    ","null","0","true","4","stims/img/CFD-WM-230-131-N.jpg","Matthew","6","stims/img/CFD-BM-207-024-N.jpg","Isaiah","","",""
"","null","fixation","html-keyboard-response","13","65444","0.0-3.0-0.5","20","3","<div style = ""font-size:60px;""> + </div>","null","","","","","","","","","","",""
"","null","learning_trial","html-keyboard-response","14","67952","0.0-3.0-1.5","20","3","
    <div class = 'grid-container'>
        <div class='header-text'> Friends </div>
        <div>
            Andrew
            <img width='150' style='border:2px black solid;' src='stims/img/CFD-AM-225-102-N.jpg'>
        </div>
        <div> &nbsp; + &nbsp; </div>
        <div>
            Joseph
            <img width='150' style='border:2px black solid;' src='stims/img/CFD-WM-231-112-N.jpg'>
        </div>
        <div class='header-text'> &nbsp; </div>
    </div>
    ","null","0","false","10","stims/img/CFD-WM-231-112-N.jpg","Joseph","12","stims/img/CFD-AM-225-102-N.jpg","Andrew","","",""
"","null","fixation","html-keyboard-response","15","68458","0.0-3.0-0.6","20","3","<div style = ""font-size:60px;""> + </div>","null","","","","","","","","","","",""
"","null","learning_trial","html-keyboard-response","16","70966","0.0-3.0-1.6","20","3","
    <div class = 'grid-container'>
        <div class='header-text'> Friends </div>
        <div>
            Nia
            <img width='150' style='border:2px black solid;' src='stims/img/CFD-BF-223-250-N.jpg'>
        </div>
        <div> &nbsp; + &nbsp; </div>
        <div>
            Sophia
            <img width='150' style='border:2px black solid;' src='stims/img/CFD-WF-219-038-N.jpg'>
        </div>
        <div class='header-text'> &nbsp; </div>
    </div>
    ","null","0","false","5","stims/img/CFD-WF-219-038-N.jpg","Sophia","7","stims/img/CFD-BF-223-250-N.jpg","Nia","","",""
"","null","fixation","html-keyboard-response","17","71472","0.0-3.0-0.7","20","3","<div style = ""font-size:60px;""> + </div>","null","","","","","","","","","","",""
"","null","learning_trial","html-keyboard-response","18","73977","0.0-3.0-1.7","20","3","
    <div class = 'grid-container'>
        <div class='header-text'> Friends </div>
        <div>
            Amy
            <img width='150' style='border:2px black solid;' src='stims/img/CFD-LF-225-164-N.jpg'>
        </div>
        <div> &nbsp; + &nbsp; </div>
        <div>
            Joseph
            <img width='150' style='border:2px black solid;' src='stims/img/CFD-WM-231-112-N.jpg'>
        </div>
        <div class='header-text'> &nbsp; </div>
    </div>
    ","null","0","true","8","stims/img/CFD-LF-225-164-N.jpg","Amy","10","stims/img/CFD-WM-231-112-N.jpg","Joseph","","",""
"","null","fixation","html-keyboard-response","19","74479","0.0-3.0-0.8","20","3","<div style = ""font-size:60px;""> + </div>","null","","","","","","","","","","",""
"","null","learning_trial","html-keyboard-response","20","76986","0.0-3.0-1.8","20","3","
    <div class = 'grid-container'>
        <div class='header-text'> Friends </div>
        <div>
            Sophia
            <img width='150' style='border:2px black solid;' src='stims/img/CFD-WF-219-038-N.jpg'>
        </div>
        <div> &nbsp; + &nbsp; </div>
        <div>
            Matthew
            <img width='150' style='border:2px black solid;' src='stims/img/CFD-WM-230-131-N.jpg'>
        </div>
        <div class='header-text'> &nbsp; </div>
    </div>
    ","null","0","false","4","stims/img/CFD-WM-230-131-N.jpg","Matthew","5","stims/img/CFD-WF-219-038-N.jpg","Sophia","","",""
"","null","fixation","html-keyboard-response","21","77493","0.0-3.0-0.9","20","3","<div style = ""font-size:60px;""> + </div>","null","","","","","","","","","","",""
"","null","learning_trial","html-keyboard-response","22","80000","0.0-3.0-1.9","20","3","
    <div class = 'grid-container'>
        <div class='header-text'> Friends </div>
        <div>
            Andrew
            <img width='150' style='border:2px black solid;' src='stims/img/CFD-AM-225-102-N.jpg'>
        </div>
        <div> &nbsp; + &nbsp; </div>
        <div>
            Aiden
            <img width='150' style='border:2px black solid;' src='stims/img/CFD-BM-210-148-N.jpg'>
        </div>
        <div class='header-text'> &nbsp; </div>
    </div>
    ","null","0","false","11","stims/img/CFD-BM-210-148-N.jpg","Aiden","12","stims/img/CFD-AM-225-102-N.jpg","Andrew","","",""
"","null","fixation","html-keyboard-response","23","80507","0.0-3.0-0.10","20","3","<div style = ""font-size:60px;""> + </div>","null","","","","","","","","","","",""
"","null","learning_trial","html-keyboard-response","24","83012","0.0-3.0-1.10","20","3","
    <div class = 'grid-container'>
        <div class='header-text'> Friends </div>
        <div>
            Amy
            <img width='150' style='border:2px black solid;' src='stims/img/CFD-LF-225-164-N.jpg'>
        </div>
        <div> &nbsp; + &nbsp; </div>
        <div>
            Emily
            <img width='150' style='border:2px black solid;' src='stims/img/CFD-LF-251-057-N.jpg'>
        </div>
        <div class='header-text'> &nbsp; </div>
    </div>
    ","null","0","false","1","stims/img/CFD-LF-251-057-N.jpg","Emily","8","stims/img/CFD-LF-225-164-N.jpg","Amy","","",""
"","null","fixation","html-keyboard-response","25","83519","0.0-3.0-0.11","20","3","<div style = ""font-size:60px;""> + </div>","null","","","","","","","","","","",""
"","null","learning_trial","html-keyboard-response","26","86027","0.0-3.0-1.11","20","3","
    <div class = 'grid-container'>
        <div class='header-text'> Friends </div>
        <div>
            Aiden
            <img width='150' style='border:2px black solid;' src='stims/img/CFD-BM-210-148-N.jpg'>
        </div>
        <div> &nbsp; + &nbsp; </div>
        <div>
            Alexandra
            <img width='150' style='border:2px black solid;' src='stims/img/CFD-WF-214-122-N.jpg'>
        </div>
        <div class='header-text'> &nbsp; </div>
    </div>
    ","null","0","true","11","stims/img/CFD-BM-210-148-N.jpg","Aiden","13","stims/img/CFD-WF-214-122-N.jpg","Alexandra","","",""
"","null","fixation","html-keyboard-response","27","86531","0.0-3.0-0.12","20","3","<div style = ""font-size:60px;""> + </div>","null","","","","","","","","","","",""
"","null","learning_trial","html-keyboard-response","28","89038","0.0-3.0-1.12","20","3","
    <div class = 'grid-container'>
        <div class='header-text'> Friends </div>
        <div>
            Nia
            <img width='150' style='border:2px black solid;' src='stims/img/CFD-BF-223-250-N.jpg'>
        </div>
        <div> &nbsp; + &nbsp; </div>
        <div>
            Isaiah
            <img width='150' style='border:2px black solid;' src='stims/img/CFD-BM-207-024-N.jpg'>
        </div>
        <div class='header-text'> &nbsp; </div>
    </div>
    ","null","0","false","6","stims/img/CFD-BM-207-024-N.jpg","Isaiah","7","stims/img/CFD-BF-223-250-N.jpg","Nia","","",""
"","null","fixation","html-keyboard-response","29","89540","0.0-3.0-0.13","20","3","<div style = ""font-size:60px;""> + </div>","null","","","","","","","","","","",""
"","null","learning_trial","html-keyboard-response","30","92047","0.0-3.0-1.13","20","3","
    <div class = 'grid-container'>
        <div class='header-text'> Friends </div>
        <div>
            Alexandra
            <img width='150' style='border:2px black solid;' src='stims/img/CFD-WF-214-122-N.jpg'>
        </div>
        <div> &nbsp; + &nbsp; </div>
        <div>
            Andrew
            <img width='150' style='border:2px black solid;' src='stims/img/CFD-AM-225-102-N.jpg'>
        </div>
        <div class='header-text'> &nbsp; </div>
    </div>
    ","null","0","false","12","stims/img/CFD-AM-225-102-N.jpg","Andrew","13","stims/img/CFD-WF-214-122-N.jpg","Alexandra","","",""
"","null","fixation","html-keyboard-response","31","92553","0.0-3.0-0.14","20","3","<div style = ""font-size:60px;""> + </div>","null","","","","","","","","","","",""
"","null","learning_trial","html-keyboard-response","32","95060","0.0-3.0-1.14","20","3","
    <div class = 'grid-container'>
        <div class='header-text'> Friends </div>
        <div>
            Christopher
            <img width='150' style='border:2px black solid;' src='stims/img/CFD-LM-223-175-N.jpg'>
        </div>
        <div> &nbsp; + &nbsp; </div>
        <div>
            Mia
            <img width='150' style='border:2px black solid;' src='stims/img/CFD-BF-216-132-N.jpg'>
        </div>
        <div class='header-text'> &nbsp; </div>
    </div>
    ","null","0","true","2","stims/img/CFD-LM-223-175-N.jpg","Christopher","3","stims/img/CFD-BF-216-132-N.jpg","Mia","","",""
"","null","fixation","html-keyboard-response","33","95563","0.0-3.0-0.15","20","3","<div style = ""font-size:60px;""> + </div>","null","","","","","","","","","","",""
"","null","learning_trial","html-keyboard-response","34","98070","0.0-3.0-1.15","20","3","
    <div class = 'grid-container'>
        <div class='header-text'> Friends </div>
        <div>
            Emma
            <img width='150' style='border:2px black solid;' src='stims/img/CFD-AF-211-066-N.jpg'>
        </div>
        <div> &nbsp; + &nbsp; </div>
        <div>
            Aiden
            <img width='150' style='border:2px black solid;' src='stims/img/CFD-BM-210-148-N.jpg'>
        </div>
        <div class='header-text'> &nbsp; </div>
    </div>
    ","null","0","true","9","stims/img/CFD-AF-211-066-N.jpg","Emma","11","stims/img/CFD-BM-210-148-N.jpg","Aiden","","",""
"","null","fixation","html-keyboard-response","35","98575","0.0-3.0-0.16","20","3","<div style = ""font-size:60px;""> + </div>","null","","","","","","","","","","",""
"","null","learning_trial","html-keyboard-response","36","101082","0.0-3.0-1.16","20","3","
    <div class = 'grid-container'>
        <div class='header-text'> Friends </div>
        <div>
            Christopher
            <img width='150' style='border:2px black solid;' src='stims/img/CFD-LM-223-175-N.jpg'>
        </div>
        <div> &nbsp; + &nbsp; </div>
        <div>
            Matthew
            <img width='150' style='border:2px black solid;' src='stims/img/CFD-WM-230-131-N.jpg'>
        </div>
        <div class='header-text'> &nbsp; </div>
    </div>
    ","null","0","true","2","stims/img/CFD-LM-223-175-N.jpg","Christopher","4","stims/img/CFD-WM-230-131-N.jpg","Matthew","","",""
"","2274","break","html-keyboard-response","37","103359","0.0-3.0-2.16-0.16","20","3","If you'd like to take a break before continuing, 
    please do so now. <p>To continue, please press the spacebar.</p>"," ","","","","","","","","","","",""
"","null","fixation","html-keyboard-response","38","103865","0.0-3.0-0.17","20","3","<div style = ""font-size:60px;""> + </div>","null","","","","","","","","","","",""
"","null","learning_trial","html-keyboard-response","39","106373","0.0-3.0-1.17","20","3","
    <div class = 'grid-container'>
        <div class='header-text'> Friends </div>
        <div>
            Joseph
            <img width='150' style='border:2px black solid;' src='stims/img/CFD-WM-231-112-N.jpg'>
        </div>
        <div> &nbsp; + &nbsp; </div>
        <div>
            Amy
            <img width='150' style='border:2px black solid;' src='stims/img/CFD-LF-225-164-N.jpg'>
        </div>
        <div class='header-text'> &nbsp; </div>
    </div>
    ","null","1","false","8","stims/img/CFD-LF-225-164-N.jpg","Amy","10","stims/img/CFD-WM-231-112-N.jpg","Joseph","","",""
"","null","fixation","html-keyboard-response","40","106878","0.0-3.0-0.18","20","3","<div style = ""font-size:60px;""> + </div>","null","","","","","","","","","","",""
"","null","learning_trial","html-keyboard-response","41","109385","0.0-3.0-1.18","20","3","
    <div class = 'grid-container'>
        <div class='header-text'> Friends </div>
        <div>
            Andrew
            <img width='150' style='border:2px black solid;' src='stims/img/CFD-AM-225-102-N.jpg'>
        </div>
        <div> &nbsp; + &nbsp; </div>
        <div>
            Alexandra
            <img width='150' style='border:2px black solid;' src='stims/img/CFD-WF-214-122-N.jpg'>
        </div>
        <div class='header-text'> &nbsp; </div>
    </div>
    ","null","1","true","12","stims/img/CFD-AM-225-102-N.jpg","Andrew","13","stims/img/CFD-WF-214-122-N.jpg","Alexandra","","",""
"","null","fixation","html-keyboard-response","42","109892","0.0-3.0-0.19","20","3","<div style = ""font-size:60px;""> + </div>","null","","","","","","","","","","",""
"","null","learning_trial","html-keyboard-response","43","112399","0.0-3.0-1.19","20","3","
    <div class = 'grid-container'>
        <div class='header-text'> Friends </div>
        <div>
            Amy
            <img width='150' style='border:2px black solid;' src='stims/img/CFD-LF-225-164-N.jpg'>
        </div>
        <div> &nbsp; + &nbsp; </div>
        <div>
            Emma
            <img width='150' style='border:2px black solid;' src='stims/img/CFD-AF-211-066-N.jpg'>
        </div>
        <div class='header-text'> &nbsp; </div>
    </div>
    ","null","1","true","8","stims/img/CFD-LF-225-164-N.jpg","Amy","9","stims/img/CFD-AF-211-066-N.jpg","Emma","","",""
"","null","fixation","html-keyboard-response","44","112906","0.0-3.0-0.20","20","3","<div style = ""font-size:60px;""> + </div>","null","","","","","","","","","","",""
"","null","learning_trial","html-keyboard-response","45","115413","0.0-3.0-1.20","20","3","
    <div class = 'grid-container'>
        <div class='header-text'> Friends </div>
        <div>
            Emily
            <img width='150' style='border:2px black solid;' src='stims/img/CFD-LF-251-057-N.jpg'>
        </div>
        <div> &nbsp; + &nbsp; </div>
        <div>
            Christopher
            <img width='150' style='border:2px black solid;' src='stims/img/CFD-LM-223-175-N.jpg'>
        </div>
        <div class='header-text'> &nbsp; </div>
    </div>
    ","null","1","true","1","stims/img/CFD-LF-251-057-N.jpg","Emily","2","stims/img/CFD-LM-223-175-N.jpg","Christopher","","",""
"","null","fixation","html-keyboard-response","46","115919","0.0-3.0-0.21","20","3","<div style = ""font-size:60px;""> + </div>","null","","","","","","","","","","",""
"","null","learning_trial","html-keyboard-response","47","118427","0.0-3.0-1.21","20","3","
    <div class = 'grid-container'>
        <div class='header-text'> Friends </div>
        <div>
            Nia
            <img width='150' style='border:2px black solid;' src='stims/img/CFD-BF-223-250-N.jpg'>
        </div>
        <div> &nbsp; + &nbsp; </div>
        <div>
            Isaiah
            <img width='150' style='border:2px black solid;' src='stims/img/CFD-BM-207-024-N.jpg'>
        </div>
        <div class='header-text'> &nbsp; </div>
    </div>
    ","null","1","false","6","stims/img/CFD-BM-207-024-N.jpg","Isaiah","7","stims/img/CFD-BF-223-250-N.jpg","Nia","","",""
"","null","fixation","html-keyboard-response","48","118935","0.0-3.0-0.22","20","3","<div style = ""font-size:60px;""> + </div>","null","","","","","","","","","","",""
"","null","learning_trial","html-keyboard-response","49","121444","0.0-3.0-1.22","20","3","
    <div class = 'grid-container'>
        <div class='header-text'> Friends </div>
        <div>
            Mia
            <img width='150' style='border:2px black solid;' src='stims/img/CFD-BF-216-132-N.jpg'>
        </div>
        <div> &nbsp; + &nbsp; </div>
        <div>
            Matthew
            <img width='150' style='border:2px black solid;' src='stims/img/CFD-WM-230-131-N.jpg'>
        </div>
        <div class='header-text'> &nbsp; </div>
    </div>
    ","null","1","true","3","stims/img/CFD-BF-216-132-N.jpg","Mia","4","stims/img/CFD-WM-230-131-N.jpg","Matthew","","",""
"","null","fixation","html-keyboard-response","50","121951","0.0-3.0-0.23","20","3","<div style = ""font-size:60px;""> + </div>","null","","","","","","","","","","",""
"","null","learning_trial","html-keyboard-response","51","124460","0.0-3.0-1.23","20","3","
    <div class = 'grid-container'>
        <div class='header-text'> Friends </div>
        <div>
            Sophia
            <img width='150' style='border:2px black solid;' src='stims/img/CFD-WF-219-038-N.jpg'>
        </div>
        <div> &nbsp; + &nbsp; </div>
        <div>
            Matthew
            <img width='150' style='border:2px black solid;' src='stims/img/CFD-WM-230-131-N.jpg'>
        </div>
        <div class='header-text'> &nbsp; </div>
    </div>
    ","null","1","false","4","stims/img/CFD-WM-230-131-N.jpg","Matthew","5","stims/img/CFD-WF-219-038-N.jpg","Sophia","","",""
"","null","fixation","html-keyboard-response","52","124964","0.0-3.0-0.24","20","3","<div style = ""font-size:60px;""> + </div>","null","","","","","","","","","","",""
"","null","learning_trial","html-keyboard-response","53","127472","0.0-3.0-1.24","20","3","
    <div class = 'grid-container'>
        <div class='header-text'> Friends </div>
        <div>
            Matthew
            <img width='150' style='border:2px black solid;' src='stims/img/CFD-WM-230-131-N.jpg'>
        </div>
        <div> &nbsp; + &nbsp; </div>
        <div>
            Isaiah
            <img width='150' style='border:2px black solid;' src='stims/img/CFD-BM-207-024-N.jpg'>
        </div>
        <div class='header-text'> &nbsp; </div>
    </div>
    ","null","1","true","4","stims/img/CFD-WM-230-131-N.jpg","Matthew","6","stims/img/CFD-BM-207-024-N.jpg","Isaiah","","",""
"","null","fixation","html-keyboard-response","54","127978","0.0-3.0-0.25","20","3","<div style = ""font-size:60px;""> + </div>","null","","","","","","","","","","",""
"","null","learning_trial","html-keyboard-response","55","130484","0.0-3.0-1.25","20","3","
    <div class = 'grid-container'>
        <div class='header-text'> Friends </div>
        <div>
            Sophia
            <img width='150' style='border:2px black solid;' src='stims/img/CFD-WF-219-038-N.jpg'>
        </div>
        <div> &nbsp; + &nbsp; </div>
        <div>
            Mia
            <img width='150' style='border:2px black solid;' src='stims/img/CFD-BF-216-132-N.jpg'>
        </div>
        <div class='header-text'> &nbsp; </div>
    </div>
    ","null","1","false","3","stims/img/CFD-BF-216-132-N.jpg","Mia","5","stims/img/CFD-WF-219-038-N.jpg","Sophia","","",""
"","null","fixation","html-keyboard-response","56","130990","0.0-3.0-0.26","20","3","<div style = ""font-size:60px;""> + </div>","null","","","","","","","","","","",""
"","null","learning_trial","html-keyboard-response","57","133499","0.0-3.0-1.26","20","3","
    <div class = 'grid-container'>
        <div class='header-text'> Friends </div>
        <div>
            Andrew
            <img width='150' style='border:2px black solid;' src='stims/img/CFD-AM-225-102-N.jpg'>
        </div>
        <div> &nbsp; + &nbsp; </div>
        <div>
            Aiden
            <img width='150' style='border:2px black solid;' src='stims/img/CFD-BM-210-148-N.jpg'>
        </div>
        <div class='header-text'> &nbsp; </div>
    </div>
    ","null","1","false","11","stims/img/CFD-BM-210-148-N.jpg","Aiden","12","stims/img/CFD-AM-225-102-N.jpg","Andrew","","",""
"","null","fixation","html-keyboard-response","58","134005","0.0-3.0-0.27","20","3","<div style = ""font-size:60px;""> + </div>","null","","","","","","","","","","",""
"","null","learning_trial","html-keyboard-response","59","136512","0.0-3.0-1.27","20","3","
    <div class = 'grid-container'>
        <div class='header-text'> Friends </div>
        <div>
            Amy
            <img width='150' style='border:2px black solid;' src='stims/img/CFD-LF-225-164-N.jpg'>
        </div>
        <div> &nbsp; + &nbsp; </div>
        <div>
            Emily
            <img width='150' style='border:2px black solid;' src='stims/img/CFD-LF-251-057-N.jpg'>
        </div>
        <div class='header-text'> &nbsp; </div>
    </div>
    ","null","1","false","1","stims/img/CFD-LF-251-057-N.jpg","Emily","8","stims/img/CFD-LF-225-164-N.jpg","Amy","","",""
"","null","fixation","html-keyboard-response","60","137019","0.0-3.0-0.28","20","3","<div style = ""font-size:60px;""> + </div>","null","","","","","","","","","","",""
"","null","learning_trial","html-keyboard-response","61","139524","0.0-3.0-1.28","20","3","
    <div class = 'grid-container'>
        <div class='header-text'> Friends </div>
        <div>
            Joseph
            <img width='150' style='border:2px black solid;' src='stims/img/CFD-WM-231-112-N.jpg'>
        </div>
        <div> &nbsp; + &nbsp; </div>
        <div>
            Andrew
            <img width='150' style='border:2px black solid;' src='stims/img/CFD-AM-225-102-N.jpg'>
        </div>
        <div class='header-text'> &nbsp; </div>
    </div>
    ","null","1","true","10","stims/img/CFD-WM-231-112-N.jpg","Joseph","12","stims/img/CFD-AM-225-102-N.jpg","Andrew","","",""
"","null","fixation","html-keyboard-response","62","140031","0.0-3.0-0.29","20","3","<div style = ""font-size:60px;""> + </div>","null","","","","","","","","","","",""
"","null","learning_trial","html-keyboard-response","63","142537","0.0-3.0-1.29","20","3","
    <div class = 'grid-container'>
        <div class='header-text'> Friends </div>
        <div>
            Aiden
            <img width='150' style='border:2px black solid;' src='stims/img/CFD-BM-210-148-N.jpg'>
        </div>
        <div> &nbsp; + &nbsp; </div>
        <div>
            Emma
            <img width='150' style='border:2px black solid;' src='stims/img/CFD-AF-211-066-N.jpg'>
        </div>
        <div class='header-text'> &nbsp; </div>
    </div>
    ","null","1","false","9","stims/img/CFD-AF-211-066-N.jpg","Emma","11","stims/img/CFD-BM-210-148-N.jpg","Aiden","","",""
"","null","fixation","html-keyboard-response","64","143044","0.0-3.0-0.30","20","3","<div style = ""font-size:60px;""> + </div>","null","","","","","","","","","","",""
"","null","learning_trial","html-keyboard-response","65","145550","0.0-3.0-1.30","20","3","
    <div class = 'grid-container'>
        <div class='header-text'> Friends </div>
        <div>
            Christopher
            <img width='150' style='border:2px black solid;' src='stims/img/CFD-LM-223-175-N.jpg'>
        </div>
        <div> &nbsp; + &nbsp; </div>
        <div>
            Mia
            <img width='150' style='border:2px black solid;' src='stims/img/CFD-BF-216-132-N.jpg'>
        </div>
        <div class='header-text'> &nbsp; </div>
    </div>
    ","null","1","true","2","stims/img/CFD-LM-223-175-N.jpg","Christopher","3","stims/img/CFD-BF-216-132-N.jpg","Mia","","",""
"","null","fixation","html-keyboard-response","66","146052","0.0-3.0-0.31","20","3","<div style = ""font-size:60px;""> + </div>","null","","","","","","","","","","",""
"","null","learning_trial","html-keyboard-response","67","148558","0.0-3.0-1.31","20","3","
    <div class = 'grid-container'>
        <div class='header-text'> Friends </div>
        <div>
            Matthew
            <img width='150' style='border:2px black solid;' src='stims/img/CFD-WM-230-131-N.jpg'>
        </div>
        <div> &nbsp; + &nbsp; </div>
        <div>
            Christopher
            <img width='150' style='border:2px black solid;' src='stims/img/CFD-LM-223-175-N.jpg'>
        </div>
        <div class='header-text'> &nbsp; </div>
    </div>
    ","null","1","false","2","stims/img/CFD-LM-223-175-N.jpg","Christopher","4","stims/img/CFD-WM-230-131-N.jpg","Matthew","","",""
"","null","fixation","html-keyboard-response","68","149065","0.0-3.0-0.32","20","3","<div style = ""font-size:60px;""> + </div>","null","","","","","","","","","","",""
"","null","learning_trial","html-keyboard-response","69","151571","0.0-3.0-1.32","20","3","
    <div class = 'grid-container'>
        <div class='header-text'> Friends </div>
        <div>
            Sophia
            <img width='150' style='border:2px black solid;' src='stims/img/CFD-WF-219-038-N.jpg'>
        </div>
        <div> &nbsp; + &nbsp; </div>
        <div>
            Nia
            <img width='150' style='border:2px black solid;' src='stims/img/CFD-BF-223-250-N.jpg'>
        </div>
        <div class='header-text'> &nbsp; </div>
    </div>
    ","null","1","true","5","stims/img/CFD-WF-219-038-N.jpg","Sophia","7","stims/img/CFD-BF-223-250-N.jpg","Nia","","",""
"","null","fixation","html-keyboard-response","70","152077","0.0-3.0-0.33","20","3","<div style = ""font-size:60px;""> + </div>","null","","","","","","","","","","",""
"","null","learning_trial","html-keyboard-response","71","154584","0.0-3.0-1.33","20","3","
    <div class = 'grid-container'>
        <div class='header-text'> Friends </div>
        <div>
            Alexandra
            <img width='150' style='border:2px black solid;' src='stims/img/CFD-WF-214-122-N.jpg'>
        </div>
        <div> &nbsp; + &nbsp; </div>
        <div>
            Aiden
            <img width='150' style='border:2px black solid;' src='stims/img/CFD-BM-210-148-N.jpg'>
        </div>
        <div class='header-text'> &nbsp; </div>
    </div>
    ","null","1","false","11","stims/img/CFD-BM-210-148-N.jpg","Aiden","13","stims/img/CFD-WF-214-122-N.jpg","Alexandra","","",""
"","1126","break","html-keyboard-response","72","155711","0.0-3.0-2.33-0.33","20","3","If you'd like to take a break before continuing, 
    please do so now. <p>To continue, please press the spacebar.</p>"," ","","","","","","","","","","",""
"","null","fixation","html-keyboard-response","73","156217","0.0-3.0-0.34","20","3","<div style = ""font-size:60px;""> + </div>","null","","","","","","","","","","",""
"","null","learning_trial","html-keyboard-response","74","158724","0.0-3.0-1.34","20","3","
    <div class = 'grid-container'>
        <div class='header-text'> Friends </div>
        <div>
            Emily
            <img width='150' style='border:2px black solid;' src='stims/img/CFD-LF-251-057-N.jpg'>
        </div>
        <div> &nbsp; + &nbsp; </div>
        <div>
            Amy
            <img width='150' style='border:2px black solid;' src='stims/img/CFD-LF-225-164-N.jpg'>
        </div>
        <div class='header-text'> &nbsp; </div>
    </div>
    ","null","2","true","1","stims/img/CFD-LF-251-057-N.jpg","Emily","8","stims/img/CFD-LF-225-164-N.jpg","Amy","","",""
"","null","fixation","html-keyboard-response","75","159225","0.0-3.0-0.35","20","3","<div style = ""font-size:60px;""> + </div>","null","","","","","","","","","","",""
"","null","learning_trial","html-keyboard-response","76","161730","0.0-3.0-1.35","20","3","
    <div class = 'grid-container'>
        <div class='header-text'> Friends </div>
        <div>
            Christopher
            <img width='150' style='border:2px black solid;' src='stims/img/CFD-LM-223-175-N.jpg'>
        </div>
        <div> &nbsp; + &nbsp; </div>
        <div>
            Mia
            <img width='150' style='border:2px black solid;' src='stims/img/CFD-BF-216-132-N.jpg'>
        </div>
        <div class='header-text'> &nbsp; </div>
    </div>
    ","null","2","true","2","stims/img/CFD-LM-223-175-N.jpg","Christopher","3","stims/img/CFD-BF-216-132-N.jpg","Mia","","",""
"","null","fixation","html-keyboard-response","77","162236","0.0-3.0-0.36","20","3","<div style = ""font-size:60px;""> + </div>","null","","","","","","","","","","",""
"","null","learning_trial","html-keyboard-response","78","164741","0.0-3.0-1.36","20","3","
    <div class = 'grid-container'>
        <div class='header-text'> Friends </div>
        <div>
            Amy
            <img width='150' style='border:2px black solid;' src='stims/img/CFD-LF-225-164-N.jpg'>
        </div>
        <div> &nbsp; + &nbsp; </div>
        <div>
            Emma
            <img width='150' style='border:2px black solid;' src='stims/img/CFD-AF-211-066-N.jpg'>
        </div>
        <div class='header-text'> &nbsp; </div>
    </div>
    ","null","2","true","8","stims/img/CFD-LF-225-164-N.jpg","Amy","9","stims/img/CFD-AF-211-066-N.jpg","Emma","","",""
"","null","fixation","html-keyboard-response","79","165248","0.0-3.0-0.37","20","3","<div style = ""font-size:60px;""> + </div>","null","","","","","","","","","","",""
"","null","learning_trial","html-keyboard-response","80","167756","0.0-3.0-1.37","20","3","
    <div class = 'grid-container'>
        <div class='header-text'> Friends </div>
        <div>
            Isaiah
            <img width='150' style='border:2px black solid;' src='stims/img/CFD-BM-207-024-N.jpg'>
        </div>
        <div> &nbsp; + &nbsp; </div>
        <div>
            Nia
            <img width='150' style='border:2px black solid;' src='stims/img/CFD-BF-223-250-N.jpg'>
        </div>
        <div class='header-text'> &nbsp; </div>
    </div>
    ","null","2","true","6","stims/img/CFD-BM-207-024-N.jpg","Isaiah","7","stims/img/CFD-BF-223-250-N.jpg","Nia","","",""
"","null","fixation","html-keyboard-response","81","168259","0.0-3.0-0.38","20","3","<div style = ""font-size:60px;""> + </div>","null","","","","","","","","","","",""
"","null","learning_trial","html-keyboard-response","82","170764","0.0-3.0-1.38","20","3","
    <div class = 'grid-container'>
        <div class='header-text'> Friends </div>
        <div>
            Joseph
            <img width='150' style='border:2px black solid;' src='stims/img/CFD-WM-231-112-N.jpg'>
        </div>
        <div> &nbsp; + &nbsp; </div>
        <div>
            Amy
            <img width='150' style='border:2px black solid;' src='stims/img/CFD-LF-225-164-N.jpg'>
        </div>
        <div class='header-text'> &nbsp; </div>
    </div>
    ","null","2","false","8","stims/img/CFD-LF-225-164-N.jpg","Amy","10","stims/img/CFD-WM-231-112-N.jpg","Joseph","","",""
"","null","fixation","html-keyboard-response","83","171271","0.0-3.0-0.39","20","3","<div style = ""font-size:60px;""> + </div>","null","","","","","","","","","","",""
"","null","learning_trial","html-keyboard-response","84","173778","0.0-3.0-1.39","20","3","
    <div class = 'grid-container'>
        <div class='header-text'> Friends </div>
        <div>
            Sophia
            <img width='150' style='border:2px black solid;' src='stims/img/CFD-WF-219-038-N.jpg'>
        </div>
        <div> &nbsp; + &nbsp; </div>
        <div>
            Matthew
            <img width='150' style='border:2px black solid;' src='stims/img/CFD-WM-230-131-N.jpg'>
        </div>
        <div class='header-text'> &nbsp; </div>
    </div>
    ","null","2","false","4","stims/img/CFD-WM-230-131-N.jpg","Matthew","5","stims/img/CFD-WF-219-038-N.jpg","Sophia","","",""
"","null","fixation","html-keyboard-response","85","174283","0.0-3.0-0.40","20","3","<div style = ""font-size:60px;""> + </div>","null","","","","","","","","","","",""
"","null","learning_trial","html-keyboard-response","86","176786","0.0-3.0-1.40","20","3","
    <div class = 'grid-container'>
        <div class='header-text'> Friends </div>
        <div>
            Andrew
            <img width='150' style='border:2px black solid;' src='stims/img/CFD-AM-225-102-N.jpg'>
        </div>
        <div> &nbsp; + &nbsp; </div>
        <div>
            Joseph
            <img width='150' style='border:2px black solid;' src='stims/img/CFD-WM-231-112-N.jpg'>
        </div>
        <div class='header-text'> &nbsp; </div>
    </div>
    ","null","2","false","10","stims/img/CFD-WM-231-112-N.jpg","Joseph","12","stims/img/CFD-AM-225-102-N.jpg","Andrew","","",""
"","null","fixation","html-keyboard-response","87","177292","0.0-3.0-0.41","20","3","<div style = ""font-size:60px;""> + </div>","null","","","","","","","","","","",""
"","null","learning_trial","html-keyboard-response","88","179798","0.0-3.0-1.41","20","3","
    <div class = 'grid-container'>
        <div class='header-text'> Friends </div>
        <div>
            Aiden
            <img width='150' style='border:2px black solid;' src='stims/img/CFD-BM-210-148-N.jpg'>
        </div>
        <div> &nbsp; + &nbsp; </div>
        <div>
            Emma
            <img width='150' style='border:2px black solid;' src='stims/img/CFD-AF-211-066-N.jpg'>
        </div>
        <div class='header-text'> &nbsp; </div>
    </div>
    ","null","2","false","9","stims/img/CFD-AF-211-066-N.jpg","Emma","11","stims/img/CFD-BM-210-148-N.jpg","Aiden","","",""
"","null","fixation","html-keyboard-response","89","180303","0.0-3.0-0.42","20","3","<div style = ""font-size:60px;""> + </div>","null","","","","","","","","","","",""
"","null","learning_trial","html-keyboard-response","90","182809","0.0-3.0-1.42","20","3","
    <div class = 'grid-container'>
        <div class='header-text'> Friends </div>
        <div>
            Mia
            <img width='150' style='border:2px black solid;' src='stims/img/CFD-BF-216-132-N.jpg'>
        </div>
        <div> &nbsp; + &nbsp; </div>
        <div>
            Sophia
            <img width='150' style='border:2px black solid;' src='stims/img/CFD-WF-219-038-N.jpg'>
        </div>
        <div class='header-text'> &nbsp; </div>
    </div>
    ","null","2","true","3","stims/img/CFD-BF-216-132-N.jpg","Mia","5","stims/img/CFD-WF-219-038-N.jpg","Sophia","","",""
"","null","fixation","html-keyboard-response","91","183315","0.0-3.0-0.43","20","3","<div style = ""font-size:60px;""> + </div>","null","","","","","","","","","","",""
"","null","learning_trial","html-keyboard-response","92","185817","0.0-3.0-1.43","20","3","
    <div class = 'grid-container'>
        <div class='header-text'> Friends </div>
        <div>
            Christopher
            <img width='150' style='border:2px black solid;' src='stims/img/CFD-LM-223-175-N.jpg'>
        </div>
        <div> &nbsp; + &nbsp; </div>
        <div>
            Matthew
            <img width='150' style='border:2px black solid;' src='stims/img/CFD-WM-230-131-N.jpg'>
        </div>
        <div class='header-text'> &nbsp; </div>
    </div>
    ","null","2","true","2","stims/img/CFD-LM-223-175-N.jpg","Christopher","4","stims/img/CFD-WM-230-131-N.jpg","Matthew","","",""
"","null","fixation","html-keyboard-response","93","186318","0.0-3.0-0.44","20","3","<div style = ""font-size:60px;""> + </div>","null","","","","","","","","","","",""
"","null","learning_trial","html-keyboard-response","94","188825","0.0-3.0-1.44","20","3","
    <div class = 'grid-container'>
        <div class='header-text'> Friends </div>
        <div>
            Alexandra
            <img width='150' style='border:2px black solid;' src='stims/img/CFD-WF-214-122-N.jpg'>
        </div>
        <div> &nbsp; + &nbsp; </div>
        <div>
            Aiden
            <img width='150' style='border:2px black solid;' src='stims/img/CFD-BM-210-148-N.jpg'>
        </div>
        <div class='header-text'> &nbsp; </div>
    </div>
    ","null","2","false","11","stims/img/CFD-BM-210-148-N.jpg","Aiden","13","stims/img/CFD-WF-214-122-N.jpg","Alexandra","","",""
"","null","fixation","html-keyboard-response","95","189331","0.0-3.0-0.45","20","3","<div style = ""font-size:60px;""> + </div>","null","","","","","","","","","","",""
"","null","learning_trial","html-keyboard-response","96","191838","0.0-3.0-1.45","20","3","
    <div class = 'grid-container'>
        <div class='header-text'> Friends </div>
        <div>
            Mia
            <img width='150' style='border:2px black solid;' src='stims/img/CFD-BF-216-132-N.jpg'>
        </div>
        <div> &nbsp; + &nbsp; </div>
        <div>
            Matthew
            <img width='150' style='border:2px black solid;' src='stims/img/CFD-WM-230-131-N.jpg'>
        </div>
        <div class='header-text'> &nbsp; </div>
    </div>
    ","null","2","true","3","stims/img/CFD-BF-216-132-N.jpg","Mia","4","stims/img/CFD-WM-230-131-N.jpg","Matthew","","",""
"","null","fixation","html-keyboard-response","97","192344","0.0-3.0-0.46","20","3","<div style = ""font-size:60px;""> + </div>","null","","","","","","","","","","",""
"","null","learning_trial","html-keyboard-response","98","194849","0.0-3.0-1.46","20","3","
    <div class = 'grid-container'>
        <div class='header-text'> Friends </div>
        <div>
            Christopher
            <img width='150' style='border:2px black solid;' src='stims/img/CFD-LM-223-175-N.jpg'>
        </div>
        <div> &nbsp; + &nbsp; </div>
        <div>
            Emily
            <img width='150' style='border:2px black solid;' src='stims/img/CFD-LF-251-057-N.jpg'>
        </div>
        <div class='header-text'> &nbsp; </div>
    </div>
    ","null","2","false","1","stims/img/CFD-LF-251-057-N.jpg","Emily","2","stims/img/CFD-LM-223-175-N.jpg","Christopher","","",""
"","null","fixation","html-keyboard-response","99","195355","0.0-3.0-0.47","20","3","<div style = ""font-size:60px;""> + </div>","null","","","","","","","","","","",""
"","null","learning_trial","html-keyboard-response","100","197860","0.0-3.0-1.47","20","3","
    <div class = 'grid-container'>
        <div class='header-text'> Friends </div>
        <div>
            Alexandra
            <img width='150' style='border:2px black solid;' src='stims/img/CFD-WF-214-122-N.jpg'>
        </div>
        <div> &nbsp; + &nbsp; </div>
        <div>
            Andrew
            <img width='150' style='border:2px black solid;' src='stims/img/CFD-AM-225-102-N.jpg'>
        </div>
        <div class='header-text'> &nbsp; </div>
    </div>
    ","null","2","false","12","stims/img/CFD-AM-225-102-N.jpg","Andrew","13","stims/img/CFD-WF-214-122-N.jpg","Alexandra","","",""
"","null","fixation","html-keyboard-response","101","198361","0.0-3.0-0.48","20","3","<div style = ""font-size:60px;""> + </div>","null","","","","","","","","","","",""
"","null","learning_trial","html-keyboard-response","102","200864","0.0-3.0-1.48","20","3","
    <div class = 'grid-container'>
        <div class='header-text'> Friends </div>
        <div>
            Nia
            <img width='150' style='border:2px black solid;' src='stims/img/CFD-BF-223-250-N.jpg'>
        </div>
        <div> &nbsp; + &nbsp; </div>
        <div>
            Sophia
            <img width='150' style='border:2px black solid;' src='stims/img/CFD-WF-219-038-N.jpg'>
        </div>
        <div class='header-text'> &nbsp; </div>
    </div>
    ","null","2","false","5","stims/img/CFD-WF-219-038-N.jpg","Sophia","7","stims/img/CFD-BF-223-250-N.jpg","Nia","","",""
"","null","fixation","html-keyboard-response","103","201370","0.0-3.0-0.49","20","3","<div style = ""font-size:60px;""> + </div>","null","","","","","","","","","","",""
"","null","learning_trial","html-keyboard-response","104","203876","0.0-3.0-1.49","20","3","
    <div class = 'grid-container'>
        <div class='header-text'> Friends </div>
        <div>
            Andrew
            <img width='150' style='border:2px black solid;' src='stims/img/CFD-AM-225-102-N.jpg'>
        </div>
        <div> &nbsp; + &nbsp; </div>
        <div>
            Aiden
            <img width='150' style='border:2px black solid;' src='stims/img/CFD-BM-210-148-N.jpg'>
        </div>
        <div class='header-text'> &nbsp; </div>
    </div>
    ","null","2","false","11","stims/img/CFD-BM-210-148-N.jpg","Aiden","12","stims/img/CFD-AM-225-102-N.jpg","Andrew","","",""
"","null","fixation","html-keyboard-response","105","204382","0.0-3.0-0.50","20","3","<div style = ""font-size:60px;""> + </div>","null","","","","","","","","","","",""
"","null","learning_trial","html-keyboard-response","106","206889","0.0-3.0-1.50","20","3","
    <div class = 'grid-container'>
        <div class='header-text'> Friends </div>
        <div>
            Isaiah
            <img width='150' style='border:2px black solid;' src='stims/img/CFD-BM-207-024-N.jpg'>
        </div>
        <div> &nbsp; + &nbsp; </div>
        <div>
            Matthew
            <img width='150' style='border:2px black solid;' src='stims/img/CFD-WM-230-131-N.jpg'>
        </div>
        <div class='header-text'> &nbsp; </div>
    </div>
    ","null","2","false","4","stims/img/CFD-WM-230-131-N.jpg","Matthew","6","stims/img/CFD-BM-207-024-N.jpg","Isaiah","","",""
"","1480","break","html-keyboard-response","107","208370","0.0-3.0-2.50-0.50","20","3","If you'd like to take a break before continuing, 
    please do so now. <p>To continue, please press the spacebar.</p>"," ","","","","","","","","","","",""
"","null","fixation","html-keyboard-response","108","208876","0.0-3.0-0.51","20","3","<div style = ""font-size:60px;""> + </div>","null","","","","","","","","","","",""
"","null","learning_trial","html-keyboard-response","109","211383","0.0-3.0-1.51","20","3","
    <div class = 'grid-container'>
        <div class='header-text'> Friends </div>
        <div>
            Christopher
            <img width='150' style='border:2px black solid;' src='stims/img/CFD-LM-223-175-N.jpg'>
        </div>
        <div> &nbsp; + &nbsp; </div>
        <div>
            Mia
            <img width='150' style='border:2px black solid;' src='stims/img/CFD-BF-216-132-N.jpg'>
        </div>
        <div class='header-text'> &nbsp; </div>
    </div>
    ","null","3","true","2","stims/img/CFD-LM-223-175-N.jpg","Christopher","3","stims/img/CFD-BF-216-132-N.jpg","Mia","","",""
"","null","fixation","html-keyboard-response","110","211886","0.0-3.0-0.52","20","3","<div style = ""font-size:60px;""> + </div>","null","","","","","","","","","","",""
"","null","learning_trial","html-keyboard-response","111","214393","0.0-3.0-1.52","20","3","
    <div class = 'grid-container'>
        <div class='header-text'> Friends </div>
        <div>
            Mia
            <img width='150' style='border:2px black solid;' src='stims/img/CFD-BF-216-132-N.jpg'>
        </div>
        <div> &nbsp; + &nbsp; </div>
        <div>
            Sophia
            <img width='150' style='border:2px black solid;' src='stims/img/CFD-WF-219-038-N.jpg'>
        </div>
        <div class='header-text'> &nbsp; </div>
    </div>
    ","null","3","true","3","stims/img/CFD-BF-216-132-N.jpg","Mia","5","stims/img/CFD-WF-219-038-N.jpg","Sophia","","",""
"","null","fixation","html-keyboard-response","112","214899","0.0-3.0-0.53","20","3","<div style = ""font-size:60px;""> + </div>","null","","","","","","","","","","",""
"","null","learning_trial","html-keyboard-response","113","217406","0.0-3.0-1.53","20","3","
    <div class = 'grid-container'>
        <div class='header-text'> Friends </div>
        <div>
            Emily
            <img width='150' style='border:2px black solid;' src='stims/img/CFD-LF-251-057-N.jpg'>
        </div>
        <div> &nbsp; + &nbsp; </div>
        <div>
            Christopher
            <img width='150' style='border:2px black solid;' src='stims/img/CFD-LM-223-175-N.jpg'>
        </div>
        <div class='header-text'> &nbsp; </div>
    </div>
    ","null","3","true","1","stims/img/CFD-LF-251-057-N.jpg","Emily","2","stims/img/CFD-LM-223-175-N.jpg","Christopher","","",""
"","null","fixation","html-keyboard-response","114","217912","0.0-3.0-0.54","20","3","<div style = ""font-size:60px;""> + </div>","null","","","","","","","","","","",""
"","null","learning_trial","html-keyboard-response","115","220416","0.0-3.0-1.54","20","3","
    <div class = 'grid-container'>
        <div class='header-text'> Friends </div>
        <div>
            Isaiah
            <img width='150' style='border:2px black solid;' src='stims/img/CFD-BM-207-024-N.jpg'>
        </div>
        <div> &nbsp; + &nbsp; </div>
        <div>
            Nia
            <img width='150' style='border:2px black solid;' src='stims/img/CFD-BF-223-250-N.jpg'>
        </div>
        <div class='header-text'> &nbsp; </div>
    </div>
    ","null","3","true","6","stims/img/CFD-BM-207-024-N.jpg","Isaiah","7","stims/img/CFD-BF-223-250-N.jpg","Nia","","",""
"","null","fixation","html-keyboard-response","116","220918","0.0-3.0-0.55","20","3","<div style = ""font-size:60px;""> + </div>","null","","","","","","","","","","",""
"","null","learning_trial","html-keyboard-response","117","223425","0.0-3.0-1.55","20","3","
    <div class = 'grid-container'>
        <div class='header-text'> Friends </div>
        <div>
            Emma
            <img width='150' style='border:2px black solid;' src='stims/img/CFD-AF-211-066-N.jpg'>
        </div>
        <div> &nbsp; + &nbsp; </div>
        <div>
            Amy
            <img width='150' style='border:2px black solid;' src='stims/img/CFD-LF-225-164-N.jpg'>
        </div>
        <div class='header-text'> &nbsp; </div>
    </div>
    ","null","3","false","8","stims/img/CFD-LF-225-164-N.jpg","Amy","9","stims/img/CFD-AF-211-066-N.jpg","Emma","","",""
"","null","fixation","html-keyboard-response","118","223931","0.0-3.0-0.56","20","3","<div style = ""font-size:60px;""> + </div>","null","","","","","","","","","","",""
"","null","learning_trial","html-keyboard-response","119","226438","0.0-3.0-1.56","20","3","
    <div class = 'grid-container'>
        <div class='header-text'> Friends </div>
        <div>
            Matthew
            <img width='150' style='border:2px black solid;' src='stims/img/CFD-WM-230-131-N.jpg'>
        </div>
        <div> &nbsp; + &nbsp; </div>
        <div>
            Mia
            <img width='150' style='border:2px black solid;' src='stims/img/CFD-BF-216-132-N.jpg'>
        </div>
        <div class='header-text'> &nbsp; </div>
    </div>
    ","null","3","false","3","stims/img/CFD-BF-216-132-N.jpg","Mia","4","stims/img/CFD-WM-230-131-N.jpg","Matthew","","",""
"","null","fixation","html-keyboard-response","120","226944","0.0-3.0-0.57","20","3","<div style = ""font-size:60px;""> + </div>","null","","","","","","","","","","",""
"","null","learning_trial","html-keyboard-response","121","229450","0.0-3.0-1.57","20","3","
    <div class = 'grid-container'>
        <div class='header-text'> Friends </div>
        <div>
            Andrew
            <img width='150' style='border:2px black solid;' src='stims/img/CFD-AM-225-102-N.jpg'>
        </div>
        <div> &nbsp; + &nbsp; </div>
        <div>
            Joseph
            <img width='150' style='border:2px black solid;' src='stims/img/CFD-WM-231-112-N.jpg'>
        </div>
        <div class='header-text'> &nbsp; </div>
    </div>
    ","null","3","false","10","stims/img/CFD-WM-231-112-N.jpg","Joseph","12","stims/img/CFD-AM-225-102-N.jpg","Andrew","","",""
"","null","fixation","html-keyboard-response","122","229957","0.0-3.0-0.58","20","3","<div style = ""font-size:60px;""> + </div>","null","","","","","","","","","","",""
"","null","learning_trial","html-keyboard-response","123","232462","0.0-3.0-1.58","20","3","
    <div class = 'grid-container'>
        <div class='header-text'> Friends </div>
        <div>
            Christopher
            <img width='150' style='border:2px black solid;' src='stims/img/CFD-LM-223-175-N.jpg'>
        </div>
        <div> &nbsp; + &nbsp; </div>
        <div>
            Matthew
            <img width='150' style='border:2px black solid;' src='stims/img/CFD-WM-230-131-N.jpg'>
        </div>
        <div class='header-text'> &nbsp; </div>
    </div>
    ","null","3","true","2","stims/img/CFD-LM-223-175-N.jpg","Christopher","4","stims/img/CFD-WM-230-131-N.jpg","Matthew","","",""
"","null","fixation","html-keyboard-response","124","232969","0.0-3.0-0.59","20","3","<div style = ""font-size:60px;""> + </div>","null","","","","","","","","","","",""
"","null","learning_trial","html-keyboard-response","125","235475","0.0-3.0-1.59","20","3","
    <div class = 'grid-container'>
        <div class='header-text'> Friends </div>
        <div>
            Andrew
            <img width='150' style='border:2px black solid;' src='stims/img/CFD-AM-225-102-N.jpg'>
        </div>
        <div> &nbsp; + &nbsp; </div>
        <div>
            Aiden
            <img width='150' style='border:2px black solid;' src='stims/img/CFD-BM-210-148-N.jpg'>
        </div>
        <div class='header-text'> &nbsp; </div>
    </div>
    ","null","3","false","11","stims/img/CFD-BM-210-148-N.jpg","Aiden","12","stims/img/CFD-AM-225-102-N.jpg","Andrew","","",""
"","null","fixation","html-keyboard-response","126","235981","0.0-3.0-0.60","20","3","<div style = ""font-size:60px;""> + </div>","null","","","","","","","","","","",""
"","null","learning_trial","html-keyboard-response","127","238486","0.0-3.0-1.60","20","3","
    <div class = 'grid-container'>
        <div class='header-text'> Friends </div>
        <div>
            Alexandra
            <img width='150' style='border:2px black solid;' src='stims/img/CFD-WF-214-122-N.jpg'>
        </div>
        <div> &nbsp; + &nbsp; </div>
        <div>
            Aiden
            <img width='150' style='border:2px black solid;' src='stims/img/CFD-BM-210-148-N.jpg'>
        </div>
        <div class='header-text'> &nbsp; </div>
    </div>
    ","null","3","false","11","stims/img/CFD-BM-210-148-N.jpg","Aiden","13","stims/img/CFD-WF-214-122-N.jpg","Alexandra","","",""
"","null","fixation","html-keyboard-response","128","238993","0.0-3.0-0.61","20","3","<div style = ""font-size:60px;""> + </div>","null","","","","","","","","","","",""
"","null","learning_trial","html-keyboard-response","129","241500","0.0-3.0-1.61","20","3","
    <div class = 'grid-container'>
        <div class='header-text'> Friends </div>
        <div>
            Matthew
            <img width='150' style='border:2px black solid;' src='stims/img/CFD-WM-230-131-N.jpg'>
        </div>
        <div> &nbsp; + &nbsp; </div>
        <div>
            Isaiah
            <img width='150' style='border:2px black solid;' src='stims/img/CFD-BM-207-024-N.jpg'>
        </div>
        <div class='header-text'> &nbsp; </div>
    </div>
    ","null","3","true","4","stims/img/CFD-WM-230-131-N.jpg","Matthew","6","stims/img/CFD-BM-207-024-N.jpg","Isaiah","","",""
"","null","fixation","html-keyboard-response","130","242004","0.0-3.0-0.62","20","3","<div style = ""font-size:60px;""> + </div>","null","","","","","","","","","","",""
"","null","learning_trial","html-keyboard-response","131","244508","0.0-3.0-1.62","20","3","
    <div class = 'grid-container'>
        <div class='header-text'> Friends </div>
        <div>
            Sophia
            <img width='150' style='border:2px black solid;' src='stims/img/CFD-WF-219-038-N.jpg'>
        </div>
        <div> &nbsp; + &nbsp; </div>
        <div>
            Nia
            <img width='150' style='border:2px black solid;' src='stims/img/CFD-BF-223-250-N.jpg'>
        </div>
        <div class='header-text'> &nbsp; </div>
    </div>
    ","null","3","true","5","stims/img/CFD-WF-219-038-N.jpg","Sophia","7","stims/img/CFD-BF-223-250-N.jpg","Nia","","",""
"","null","fixation","html-keyboard-response","132","245013","0.0-3.0-0.63","20","3","<div style = ""font-size:60px;""> + </div>","null","","","","","","","","","","",""
"","null","learning_trial","html-keyboard-response","133","247518","0.0-3.0-1.63","20","3","
    <div class = 'grid-container'>
        <div class='header-text'> Friends </div>
        <div>
            Andrew
            <img width='150' style='border:2px black solid;' src='stims/img/CFD-AM-225-102-N.jpg'>
        </div>
        <div> &nbsp; + &nbsp; </div>
        <div>
            Alexandra
            <img width='150' style='border:2px black solid;' src='stims/img/CFD-WF-214-122-N.jpg'>
        </div>
        <div class='header-text'> &nbsp; </div>
    </div>
    ","null","3","true","12","stims/img/CFD-AM-225-102-N.jpg","Andrew","13","stims/img/CFD-WF-214-122-N.jpg","Alexandra","","",""
"","null","fixation","html-keyboard-response","134","248024","0.0-3.0-0.64","20","3","<div style = ""font-size:60px;""> + </div>","null","","","","","","","","","","",""
"","null","learning_trial","html-keyboard-response","135","250531","0.0-3.0-1.64","20","3","
    <div class = 'grid-container'>
        <div class='header-text'> Friends </div>
        <div>
            Amy
            <img width='150' style='border:2px black solid;' src='stims/img/CFD-LF-225-164-N.jpg'>
        </div>
        <div> &nbsp; + &nbsp; </div>
        <div>
            Emily
            <img width='150' style='border:2px black solid;' src='stims/img/CFD-LF-251-057-N.jpg'>
        </div>
        <div class='header-text'> &nbsp; </div>
    </div>
    ","null","3","false","1","stims/img/CFD-LF-251-057-N.jpg","Emily","8","stims/img/CFD-LF-225-164-N.jpg","Amy","","",""
"","null","fixation","html-keyboard-response","136","251038","0.0-3.0-0.65","20","3","<div style = ""font-size:60px;""> + </div>","null","","","","","","","","","","",""
"","null","learning_trial","html-keyboard-response","137","253545","0.0-3.0-1.65","20","3","
    <div class = 'grid-container'>
        <div class='header-text'> Friends </div>
        <div>
            Aiden
            <img width='150' style='border:2px black solid;' src='stims/img/CFD-BM-210-148-N.jpg'>
        </div>
        <div> &nbsp; + &nbsp; </div>
        <div>
            Emma
            <img width='150' style='border:2px black solid;' src='stims/img/CFD-AF-211-066-N.jpg'>
        </div>
        <div class='header-text'> &nbsp; </div>
    </div>
    ","null","3","false","9","stims/img/CFD-AF-211-066-N.jpg","Emma","11","stims/img/CFD-BM-210-148-N.jpg","Aiden","","",""
"","null","fixation","html-keyboard-response","138","254050","0.0-3.0-0.66","20","3","<div style = ""font-size:60px;""> + </div>","null","","","","","","","","","","",""
"","null","learning_trial","html-keyboard-response","139","256558","0.0-3.0-1.66","20","3","
    <div class = 'grid-container'>
        <div class='header-text'> Friends </div>
        <div>
            Amy
            <img width='150' style='border:2px black solid;' src='stims/img/CFD-LF-225-164-N.jpg'>
        </div>
        <div> &nbsp; + &nbsp; </div>
        <div>
            Joseph
            <img width='150' style='border:2px black solid;' src='stims/img/CFD-WM-231-112-N.jpg'>
        </div>
        <div class='header-text'> &nbsp; </div>
    </div>
    ","null","3","true","8","stims/img/CFD-LF-225-164-N.jpg","Amy","10","stims/img/CFD-WM-231-112-N.jpg","Joseph","","",""
"","null","fixation","html-keyboard-response","140","257059","0.0-3.0-0.67","20","3","<div style = ""font-size:60px;""> + </div>","null","","","","","","","","","","",""
"","null","learning_trial","html-keyboard-response","141","259566","0.0-3.0-1.67","20","3","
    <div class = 'grid-container'>
        <div class='header-text'> Friends </div>
        <div>
            Sophia
            <img width='150' style='border:2px black solid;' src='stims/img/CFD-WF-219-038-N.jpg'>
        </div>
        <div> &nbsp; + &nbsp; </div>
        <div>
            Matthew
            <img width='150' style='border:2px black solid;' src='stims/img/CFD-WM-230-131-N.jpg'>
        </div>
        <div class='header-text'> &nbsp; </div>
    </div>
    ","null","3","false","4","stims/img/CFD-WM-230-131-N.jpg","Matthew","5","stims/img/CFD-WF-219-038-N.jpg","Sophia","","",""
"","1298","break","html-keyboard-response","142","260864","0.0-3.0-2.67-0.67","20","3","If you'd like to take a break before continuing, 
    please do so now. <p>To continue, please press the spacebar.</p>"," ","","","","","","","","","","",""
"","null","fixation","html-keyboard-response","143","261371","0.0-3.0-0.68","20","3","<div style = ""font-size:60px;""> + </div>","null","","","","","","","","","","",""
"","null","learning_trial","html-keyboard-response","144","263877","0.0-3.0-1.68","20","3","
    <div class = 'grid-container'>
        <div class='header-text'> Friends </div>
        <div>
            Sophia
            <img width='150' style='border:2px black solid;' src='stims/img/CFD-WF-219-038-N.jpg'>
        </div>
        <div> &nbsp; + &nbsp; </div>
        <div>
            Mia
            <img width='150' style='border:2px black solid;' src='stims/img/CFD-BF-216-132-N.jpg'>
        </div>
        <div class='header-text'> &nbsp; </div>
    </div>
    ","null","4","false","3","stims/img/CFD-BF-216-132-N.jpg","Mia","5","stims/img/CFD-WF-219-038-N.jpg","Sophia","","",""
"","null","fixation","html-keyboard-response","145","264383","0.0-3.0-0.69","20","3","<div style = ""font-size:60px;""> + </div>","null","","","","","","","","","","",""
"","null","learning_trial","html-keyboard-response","146","266890","0.0-3.0-1.69","20","3","
    <div class = 'grid-container'>
        <div class='header-text'> Friends </div>
        <div>
            Christopher
            <img width='150' style='border:2px black solid;' src='stims/img/CFD-LM-223-175-N.jpg'>
        </div>
        <div> &nbsp; + &nbsp; </div>
        <div>
            Matthew
            <img width='150' style='border:2px black solid;' src='stims/img/CFD-WM-230-131-N.jpg'>
        </div>
        <div class='header-text'> &nbsp; </div>
    </div>
    ","null","4","true","2","stims/img/CFD-LM-223-175-N.jpg","Christopher","4","stims/img/CFD-WM-230-131-N.jpg","Matthew","","",""
"","null","fixation","html-keyboard-response","147","267398","0.0-3.0-0.70","20","3","<div style = ""font-size:60px;""> + </div>","null","","","","","","","","","","",""
"","null","learning_trial","html-keyboard-response","148","269902","0.0-3.0-1.70","20","3","
    <div class = 'grid-container'>
        <div class='header-text'> Friends </div>
        <div>
            Andrew
            <img width='150' style='border:2px black solid;' src='stims/img/CFD-AM-225-102-N.jpg'>
        </div>
        <div> &nbsp; + &nbsp; </div>
        <div>
            Alexandra
            <img width='150' style='border:2px black solid;' src='stims/img/CFD-WF-214-122-N.jpg'>
        </div>
        <div class='header-text'> &nbsp; </div>
    </div>
    ","null","4","true","12","stims/img/CFD-AM-225-102-N.jpg","Andrew","13","stims/img/CFD-WF-214-122-N.jpg","Alexandra","","",""
"","null","fixation","html-keyboard-response","149","270408","0.0-3.0-0.71","20","3","<div style = ""font-size:60px;""> + </div>","null","","","","","","","","","","",""
"","null","learning_trial","html-keyboard-response","150","272912","0.0-3.0-1.71","20","3","
    <div class = 'grid-container'>
        <div class='header-text'> Friends </div>
        <div>
            Emily
            <img width='150' style='border:2px black solid;' src='stims/img/CFD-LF-251-057-N.jpg'>
        </div>
        <div> &nbsp; + &nbsp; </div>
        <div>
            Christopher
            <img width='150' style='border:2px black solid;' src='stims/img/CFD-LM-223-175-N.jpg'>
        </div>
        <div class='header-text'> &nbsp; </div>
    </div>
    ","null","4","true","1","stims/img/CFD-LF-251-057-N.jpg","Emily","2","stims/img/CFD-LM-223-175-N.jpg","Christopher","","",""
"","null","fixation","html-keyboard-response","151","273418","0.0-3.0-0.72","20","3","<div style = ""font-size:60px;""> + </div>","null","","","","","","","","","","",""
"","null","learning_trial","html-keyboard-response","152","275925","0.0-3.0-1.72","20","3","
    <div class = 'grid-container'>
        <div class='header-text'> Friends </div>
        <div>
            Nia
            <img width='150' style='border:2px black solid;' src='stims/img/CFD-BF-223-250-N.jpg'>
        </div>
        <div> &nbsp; + &nbsp; </div>
        <div>
            Sophia
            <img width='150' style='border:2px black solid;' src='stims/img/CFD-WF-219-038-N.jpg'>
        </div>
        <div class='header-text'> &nbsp; </div>
    </div>
    ","null","4","false","5","stims/img/CFD-WF-219-038-N.jpg","Sophia","7","stims/img/CFD-BF-223-250-N.jpg","Nia","","",""
"","null","fixation","html-keyboard-response","153","276431","0.0-3.0-0.73","20","3","<div style = ""font-size:60px;""> + </div>","null","","","","","","","","","","",""
"","null","learning_trial","html-keyboard-response","154","278938","0.0-3.0-1.73","20","3","
    <div class = 'grid-container'>
        <div class='header-text'> Friends </div>
        <div>
            Matthew
            <img width='150' style='border:2px black solid;' src='stims/img/CFD-WM-230-131-N.jpg'>
        </div>
        <div> &nbsp; + &nbsp; </div>
        <div>
            Mia
            <img width='150' style='border:2px black solid;' src='stims/img/CFD-BF-216-132-N.jpg'>
        </div>
        <div class='header-text'> &nbsp; </div>
    </div>
    ","null","4","false","3","stims/img/CFD-BF-216-132-N.jpg","Mia","4","stims/img/CFD-WM-230-131-N.jpg","Matthew","","",""
"","null","fixation","html-keyboard-response","155","279444","0.0-3.0-0.74","20","3","<div style = ""font-size:60px;""> + </div>","null","","","","","","","","","","",""
"","null","learning_trial","html-keyboard-response","156","281949","0.0-3.0-1.74","20","3","
    <div class = 'grid-container'>
        <div class='header-text'> Friends </div>
        <div>
            Emma
            <img width='150' style='border:2px black solid;' src='stims/img/CFD-AF-211-066-N.jpg'>
        </div>
        <div> &nbsp; + &nbsp; </div>
        <div>
            Amy
            <img width='150' style='border:2px black solid;' src='stims/img/CFD-LF-225-164-N.jpg'>
        </div>
        <div class='header-text'> &nbsp; </div>
    </div>
    ","null","4","false","8","stims/img/CFD-LF-225-164-N.jpg","Amy","9","stims/img/CFD-AF-211-066-N.jpg","Emma","","",""
"","null","fixation","html-keyboard-response","157","282455","0.0-3.0-0.75","20","3","<div style = ""font-size:60px;""> + </div>","null","","","","","","","","","","",""
"","null","learning_trial","html-keyboard-response","158","284963","0.0-3.0-1.75","20","3","
    <div class = 'grid-container'>
        <div class='header-text'> Friends </div>
        <div>
            Isaiah
            <img width='150' style='border:2px black solid;' src='stims/img/CFD-BM-207-024-N.jpg'>
        </div>
        <div> &nbsp; + &nbsp; </div>
        <div>
            Nia
            <img width='150' style='border:2px black solid;' src='stims/img/CFD-BF-223-250-N.jpg'>
        </div>
        <div class='header-text'> &nbsp; </div>
    </div>
    ","null","4","true","6","stims/img/CFD-BM-207-024-N.jpg","Isaiah","7","stims/img/CFD-BF-223-250-N.jpg","Nia","","",""
"","null","fixation","html-keyboard-response","159","285469","0.0-3.0-0.76","20","3","<div style = ""font-size:60px;""> + </div>","null","","","","","","","","","","",""
"","null","learning_trial","html-keyboard-response","160","287971","0.0-3.0-1.76","20","3","
    <div class = 'grid-container'>
        <div class='header-text'> Friends </div>
        <div>
            Andrew
            <img width='150' style='border:2px black solid;' src='stims/img/CFD-AM-225-102-N.jpg'>
        </div>
        <div> &nbsp; + &nbsp; </div>
        <div>
            Joseph
            <img width='150' style='border:2px black solid;' src='stims/img/CFD-WM-231-112-N.jpg'>
        </div>
        <div class='header-text'> &nbsp; </div>
    </div>
    ","null","4","false","10","stims/img/CFD-WM-231-112-N.jpg","Joseph","12","stims/img/CFD-AM-225-102-N.jpg","Andrew","","",""
"","null","fixation","html-keyboard-response","161","288478","0.0-3.0-0.77","20","3","<div style = ""font-size:60px;""> + </div>","null","","","","","","","","","","",""
"","null","learning_trial","html-keyboard-response","162","290984","0.0-3.0-1.77","20","3","
    <div class = 'grid-container'>
        <div class='header-text'> Friends </div>
        <div>
            Sophia
            <img width='150' style='border:2px black solid;' src='stims/img/CFD-WF-219-038-N.jpg'>
        </div>
        <div> &nbsp; + &nbsp; </div>
        <div>
            Matthew
            <img width='150' style='border:2px black solid;' src='stims/img/CFD-WM-230-131-N.jpg'>
        </div>
        <div class='header-text'> &nbsp; </div>
    </div>
    ","null","4","false","4","stims/img/CFD-WM-230-131-N.jpg","Matthew","5","stims/img/CFD-WF-219-038-N.jpg","Sophia","","",""
"","null","fixation","html-keyboard-response","163","291491","0.0-3.0-0.78","20","3","<div style = ""font-size:60px;""> + </div>","null","","","","","","","","","","",""
"","null","learning_trial","html-keyboard-response","164","293998","0.0-3.0-1.78","20","3","
    <div class = 'grid-container'>
        <div class='header-text'> Friends </div>
        <div>
            Mia
            <img width='150' style='border:2px black solid;' src='stims/img/CFD-BF-216-132-N.jpg'>
        </div>
        <div> &nbsp; + &nbsp; </div>
        <div>
            Christopher
            <img width='150' style='border:2px black solid;' src='stims/img/CFD-LM-223-175-N.jpg'>
        </div>
        <div class='header-text'> &nbsp; </div>
    </div>
    ","null","4","false","2","stims/img/CFD-LM-223-175-N.jpg","Christopher","3","stims/img/CFD-BF-216-132-N.jpg","Mia","","",""
"","null","fixation","html-keyboard-response","165","294503","0.0-3.0-0.79","20","3","<div style = ""font-size:60px;""> + </div>","null","","","","","","","","","","",""
"","null","learning_trial","html-keyboard-response","166","297009","0.0-3.0-1.79","20","3","
    <div class = 'grid-container'>
        <div class='header-text'> Friends </div>
        <div>
            Emily
            <img width='150' style='border:2px black solid;' src='stims/img/CFD-LF-251-057-N.jpg'>
        </div>
        <div> &nbsp; + &nbsp; </div>
        <div>
            Amy
            <img width='150' style='border:2px black solid;' src='stims/img/CFD-LF-225-164-N.jpg'>
        </div>
        <div class='header-text'> &nbsp; </div>
    </div>
    ","null","4","true","1","stims/img/CFD-LF-251-057-N.jpg","Emily","8","stims/img/CFD-LF-225-164-N.jpg","Amy","","",""
"","null","fixation","html-keyboard-response","167","297514","0.0-3.0-0.80","20","3","<div style = ""font-size:60px;""> + </div>","null","","","","","","","","","","",""
"","null","learning_trial","html-keyboard-response","168","300020","0.0-3.0-1.80","20","3","
    <div class = 'grid-container'>
        <div class='header-text'> Friends </div>
        <div>
            Alexandra
            <img width='150' style='border:2px black solid;' src='stims/img/CFD-WF-214-122-N.jpg'>
        </div>
        <div> &nbsp; + &nbsp; </div>
        <div>
            Aiden
            <img width='150' style='border:2px black solid;' src='stims/img/CFD-BM-210-148-N.jpg'>
        </div>
        <div class='header-text'> &nbsp; </div>
    </div>
    ","null","4","false","11","stims/img/CFD-BM-210-148-N.jpg","Aiden","13","stims/img/CFD-WF-214-122-N.jpg","Alexandra","","",""
"","null","fixation","html-keyboard-response","169","300526","0.0-3.0-0.81","20","3","<div style = ""font-size:60px;""> + </div>","null","","","","","","","","","","",""
"","null","learning_trial","html-keyboard-response","170","303031","0.0-3.0-1.81","20","3","
    <div class = 'grid-container'>
        <div class='header-text'> Friends </div>
        <div>
            Andrew
            <img width='150' style='border:2px black solid;' src='stims/img/CFD-AM-225-102-N.jpg'>
        </div>
        <div> &nbsp; + &nbsp; </div>
        <div>
            Aiden
            <img width='150' style='border:2px black solid;' src='stims/img/CFD-BM-210-148-N.jpg'>
        </div>
        <div class='header-text'> &nbsp; </div>
    </div>
    ","null","4","false","11","stims/img/CFD-BM-210-148-N.jpg","Aiden","12","stims/img/CFD-AM-225-102-N.jpg","Andrew","","",""
"","null","fixation","html-keyboard-response","171","303537","0.0-3.0-0.82","20","3","<div style = ""font-size:60px;""> + </div>","null","","","","","","","","","","",""
"","null","learning_trial","html-keyboard-response","172","306042","0.0-3.0-1.82","20","3","
    <div class = 'grid-container'>
        <div class='header-text'> Friends </div>
        <div>
            Emma
            <img width='150' style='border:2px black solid;' src='stims/img/CFD-AF-211-066-N.jpg'>
        </div>
        <div> &nbsp; + &nbsp; </div>
        <div>
            Aiden
            <img width='150' style='border:2px black solid;' src='stims/img/CFD-BM-210-148-N.jpg'>
        </div>
        <div class='header-text'> &nbsp; </div>
    </div>
    ","null","4","true","9","stims/img/CFD-AF-211-066-N.jpg","Emma","11","stims/img/CFD-BM-210-148-N.jpg","Aiden","","",""
"","null","fixation","html-keyboard-response","173","306549","0.0-3.0-0.83","20","3","<div style = ""font-size:60px;""> + </div>","null","","","","","","","","","","",""
"","null","learning_trial","html-keyboard-response","174","309055","0.0-3.0-1.83","20","3","
    <div class = 'grid-container'>
        <div class='header-text'> Friends </div>
        <div>
            Amy
            <img width='150' style='border:2px black solid;' src='stims/img/CFD-LF-225-164-N.jpg'>
        </div>
        <div> &nbsp; + &nbsp; </div>
        <div>
            Joseph
            <img width='150' style='border:2px black solid;' src='stims/img/CFD-WM-231-112-N.jpg'>
        </div>
        <div class='header-text'> &nbsp; </div>
    </div>
    ","null","4","true","8","stims/img/CFD-LF-225-164-N.jpg","Amy","10","stims/img/CFD-WM-231-112-N.jpg","Joseph","","",""
"","null","fixation","html-keyboard-response","175","309561","0.0-3.0-0.84","20","3","<div style = ""font-size:60px;""> + </div>","null","","","","","","","","","","",""
"","null","learning_trial","html-keyboard-response","176","312067","0.0-3.0-1.84","20","3","
    <div class = 'grid-container'>
        <div class='header-text'> Friends </div>
        <div>
            Isaiah
            <img width='150' style='border:2px black solid;' src='stims/img/CFD-BM-207-024-N.jpg'>
        </div>
        <div> &nbsp; + &nbsp; </div>
        <div>
            Matthew
            <img width='150' style='border:2px black solid;' src='stims/img/CFD-WM-230-131-N.jpg'>
        </div>
        <div class='header-text'> &nbsp; </div>
    </div>
    ","null","4","false","4","stims/img/CFD-WM-230-131-N.jpg","Matthew","6","stims/img/CFD-BM-207-024-N.jpg","Isaiah","","",""
"","4597","break","html-keyboard-response","177","316664","0.0-3.0-2.84-0.84","20","3","If you'd like to take a break before continuing, 
    please do so now. <p>To continue, please press the spacebar.</p>"," ","","","","","","","","","","",""
"","null","fixation","html-keyboard-response","178","317170","0.0-3.0-0.85","20","3","<div style = ""font-size:60px;""> + </div>","null","","","","","","","","","","",""
"","null","learning_trial","html-keyboard-response","179","319674","0.0-3.0-1.85","20","3","
    <div class = 'grid-container'>
        <div class='header-text'> Friends </div>
        <div>
            Andrew
            <img width='150' style='border:2px black solid;' src='stims/img/CFD-AM-225-102-N.jpg'>
        </div>
        <div> &nbsp; + &nbsp; </div>
        <div>
            Joseph
            <img width='150' style='border:2px black solid;' src='stims/img/CFD-WM-231-112-N.jpg'>
        </div>
        <div class='header-text'> &nbsp; </div>
    </div>
    ","null","5","false","10","stims/img/CFD-WM-231-112-N.jpg","Joseph","12","stims/img/CFD-AM-225-102-N.jpg","Andrew","","",""
"","null","fixation","html-keyboard-response","180","320176","0.0-3.0-0.86","20","3","<div style = ""font-size:60px;""> + </div>","null","","","","","","","","","","",""
"","null","learning_trial","html-keyboard-response","181","322682","0.0-3.0-1.86","20","3","
    <div class = 'grid-container'>
        <div class='header-text'> Friends </div>
        <div>
            Andrew
            <img width='150' style='border:2px black solid;' src='stims/img/CFD-AM-225-102-N.jpg'>
        </div>
        <div> &nbsp; + &nbsp; </div>
        <div>
            Aiden
            <img width='150' style='border:2px black solid;' src='stims/img/CFD-BM-210-148-N.jpg'>
        </div>
        <div class='header-text'> &nbsp; </div>
    </div>
    ","null","5","false","11","stims/img/CFD-BM-210-148-N.jpg","Aiden","12","stims/img/CFD-AM-225-102-N.jpg","Andrew","","",""
"","null","fixation","html-keyboard-response","182","323188","0.0-3.0-0.87","20","3","<div style = ""font-size:60px;""> + </div>","null","","","","","","","","","","",""
"","null","learning_trial","html-keyboard-response","183","325696","0.0-3.0-1.87","20","3","
    <div class = 'grid-container'>
        <div class='header-text'> Friends </div>
        <div>
            Emily
            <img width='150' style='border:2px black solid;' src='stims/img/CFD-LF-251-057-N.jpg'>
        </div>
        <div> &nbsp; + &nbsp; </div>
        <div>
            Christopher
            <img width='150' style='border:2px black solid;' src='stims/img/CFD-LM-223-175-N.jpg'>
        </div>
        <div class='header-text'> &nbsp; </div>
    </div>
    ","null","5","true","1","stims/img/CFD-LF-251-057-N.jpg","Emily","2","stims/img/CFD-LM-223-175-N.jpg","Christopher","","",""
"","null","fixation","html-keyboard-response","184","326202","0.0-3.0-0.88","20","3","<div style = ""font-size:60px;""> + </div>","null","","","","","","","","","","",""
"","null","learning_trial","html-keyboard-response","185","328709","0.0-3.0-1.88","20","3","
    <div class = 'grid-container'>
        <div class='header-text'> Friends </div>
        <div>
            Joseph
            <img width='150' style='border:2px black solid;' src='stims/img/CFD-WM-231-112-N.jpg'>
        </div>
        <div> &nbsp; + &nbsp; </div>
        <div>
            Amy
            <img width='150' style='border:2px black solid;' src='stims/img/CFD-LF-225-164-N.jpg'>
        </div>
        <div class='header-text'> &nbsp; </div>
    </div>
    ","null","5","false","8","stims/img/CFD-LF-225-164-N.jpg","Amy","10","stims/img/CFD-WM-231-112-N.jpg","Joseph","","",""
"","null","fixation","html-keyboard-response","186","329215","0.0-3.0-0.89","20","3","<div style = ""font-size:60px;""> + </div>","null","","","","","","","","","","",""
"","null","learning_trial","html-keyboard-response","187","331722","0.0-3.0-1.89","20","3","
    <div class = 'grid-container'>
        <div class='header-text'> Friends </div>
        <div>
            Sophia
            <img width='150' style='border:2px black solid;' src='stims/img/CFD-WF-219-038-N.jpg'>
        </div>
        <div> &nbsp; + &nbsp; </div>
        <div>
            Mia
            <img width='150' style='border:2px black solid;' src='stims/img/CFD-BF-216-132-N.jpg'>
        </div>
        <div class='header-text'> &nbsp; </div>
    </div>
    ","null","5","false","3","stims/img/CFD-BF-216-132-N.jpg","Mia","5","stims/img/CFD-WF-219-038-N.jpg","Sophia","","",""
"","null","fixation","html-keyboard-response","188","332229","0.0-3.0-0.90","20","3","<div style = ""font-size:60px;""> + </div>","null","","","","","","","","","","",""
"","null","learning_trial","html-keyboard-response","189","334736","0.0-3.0-1.90","20","3","
    <div class = 'grid-container'>
        <div class='header-text'> Friends </div>
        <div>
            Matthew
            <img width='150' style='border:2px black solid;' src='stims/img/CFD-WM-230-131-N.jpg'>
        </div>
        <div> &nbsp; + &nbsp; </div>
        <div>
            Isaiah
            <img width='150' style='border:2px black solid;' src='stims/img/CFD-BM-207-024-N.jpg'>
        </div>
        <div class='header-text'> &nbsp; </div>
    </div>
    ","null","5","true","4","stims/img/CFD-WM-230-131-N.jpg","Matthew","6","stims/img/CFD-BM-207-024-N.jpg","Isaiah","","",""
"","null","fixation","html-keyboard-response","190","335241","0.0-3.0-0.91","20","3","<div style = ""font-size:60px;""> + </div>","null","","","","","","","","","","",""
"","null","learning_trial","html-keyboard-response","191","337748","0.0-3.0-1.91","20","3","
    <div class = 'grid-container'>
        <div class='header-text'> Friends </div>
        <div>
            Matthew
            <img width='150' style='border:2px black solid;' src='stims/img/CFD-WM-230-131-N.jpg'>
        </div>
        <div> &nbsp; + &nbsp; </div>
        <div>
            Christopher
            <img width='150' style='border:2px black solid;' src='stims/img/CFD-LM-223-175-N.jpg'>
        </div>
        <div class='header-text'> &nbsp; </div>
    </div>
    ","null","5","false","2","stims/img/CFD-LM-223-175-N.jpg","Christopher","4","stims/img/CFD-WM-230-131-N.jpg","Matthew","","",""
"","null","fixation","html-keyboard-response","192","338255","0.0-3.0-0.92","20","3","<div style = ""font-size:60px;""> + </div>","null","","","","","","","","","","",""
"","null","learning_trial","html-keyboard-response","193","340759","0.0-3.0-1.92","20","3","
    <div class = 'grid-container'>
        <div class='header-text'> Friends </div>
        <div>
            Emma
            <img width='150' style='border:2px black solid;' src='stims/img/CFD-AF-211-066-N.jpg'>
        </div>
        <div> &nbsp; + &nbsp; </div>
        <div>
            Amy
            <img width='150' style='border:2px black solid;' src='stims/img/CFD-LF-225-164-N.jpg'>
        </div>
        <div class='header-text'> &nbsp; </div>
    </div>
    ","null","5","false","8","stims/img/CFD-LF-225-164-N.jpg","Amy","9","stims/img/CFD-AF-211-066-N.jpg","Emma","","",""
"","null","fixation","html-keyboard-response","194","341265","0.0-3.0-0.93","20","3","<div style = ""font-size:60px;""> + </div>","null","","","","","","","","","","",""
"","null","learning_trial","html-keyboard-response","195","343770","0.0-3.0-1.93","20","3","
    <div class = 'grid-container'>
        <div class='header-text'> Friends </div>
        <div>
            Alexandra
            <img width='150' style='border:2px black solid;' src='stims/img/CFD-WF-214-122-N.jpg'>
        </div>
        <div> &nbsp; + &nbsp; </div>
        <div>
            Andrew
            <img width='150' style='border:2px black solid;' src='stims/img/CFD-AM-225-102-N.jpg'>
        </div>
        <div class='header-text'> &nbsp; </div>
    </div>
    ","null","5","false","12","stims/img/CFD-AM-225-102-N.jpg","Andrew","13","stims/img/CFD-WF-214-122-N.jpg","Alexandra","","",""
"","null","fixation","html-keyboard-response","196","344276","0.0-3.0-0.94","20","3","<div style = ""font-size:60px;""> + </div>","null","","","","","","","","","","",""
"","null","learning_trial","html-keyboard-response","197","346777","0.0-3.0-1.94","20","3","
    <div class = 'grid-container'>
        <div class='header-text'> Friends </div>
        <div>
            Christopher
            <img width='150' style='border:2px black solid;' src='stims/img/CFD-LM-223-175-N.jpg'>
        </div>
        <div> &nbsp; + &nbsp; </div>
        <div>
            Mia
            <img width='150' style='border:2px black solid;' src='stims/img/CFD-BF-216-132-N.jpg'>
        </div>
        <div class='header-text'> &nbsp; </div>
    </div>
    ","null","5","true","2","stims/img/CFD-LM-223-175-N.jpg","Christopher","3","stims/img/CFD-BF-216-132-N.jpg","Mia","","",""
"","null","fixation","html-keyboard-response","198","347284","0.0-3.0-0.95","20","3","<div style = ""font-size:60px;""> + </div>","null","","","","","","","","","","",""
"","null","learning_trial","html-keyboard-response","199","349791","0.0-3.0-1.95","20","3","
    <div class = 'grid-container'>
        <div class='header-text'> Friends </div>
        <div>
            Nia
            <img width='150' style='border:2px black solid;' src='stims/img/CFD-BF-223-250-N.jpg'>
        </div>
        <div> &nbsp; + &nbsp; </div>
        <div>
            Sophia
            <img width='150' style='border:2px black solid;' src='stims/img/CFD-WF-219-038-N.jpg'>
        </div>
        <div class='header-text'> &nbsp; </div>
    </div>
    ","null","5","false","5","stims/img/CFD-WF-219-038-N.jpg","Sophia","7","stims/img/CFD-BF-223-250-N.jpg","Nia","","",""
"","null","fixation","html-keyboard-response","200","350298","0.0-3.0-0.96","20","3","<div style = ""font-size:60px;""> + </div>","null","","","","","","","","","","",""
"","null","learning_trial","html-keyboard-response","201","352804","0.0-3.0-1.96","20","3","
    <div class = 'grid-container'>
        <div class='header-text'> Friends </div>
        <div>
            Matthew
            <img width='150' style='border:2px black solid;' src='stims/img/CFD-WM-230-131-N.jpg'>
        </div>
        <div> &nbsp; + &nbsp; </div>
        <div>
            Sophia
            <img width='150' style='border:2px black solid;' src='stims/img/CFD-WF-219-038-N.jpg'>
        </div>
        <div class='header-text'> &nbsp; </div>
    </div>
    ","null","5","true","4","stims/img/CFD-WM-230-131-N.jpg","Matthew","5","stims/img/CFD-WF-219-038-N.jpg","Sophia","","",""
"","null","fixation","html-keyboard-response","202","353305","0.0-3.0-0.97","20","3","<div style = ""font-size:60px;""> + </div>","null","","","","","","","","","","",""
"","null","learning_trial","html-keyboard-response","203","355813","0.0-3.0-1.97","20","3","
    <div class = 'grid-container'>
        <div class='header-text'> Friends </div>
        <div>
            Aiden
            <img width='150' style='border:2px black solid;' src='stims/img/CFD-BM-210-148-N.jpg'>
        </div>
        <div> &nbsp; + &nbsp; </div>
        <div>
            Emma
            <img width='150' style='border:2px black solid;' src='stims/img/CFD-AF-211-066-N.jpg'>
        </div>
        <div class='header-text'> &nbsp; </div>
    </div>
    ","null","5","false","9","stims/img/CFD-AF-211-066-N.jpg","Emma","11","stims/img/CFD-BM-210-148-N.jpg","Aiden","","",""
"","null","fixation","html-keyboard-response","204","356319","0.0-3.0-0.98","20","3","<div style = ""font-size:60px;""> + </div>","null","","","","","","","","","","",""
"","null","learning_trial","html-keyboard-response","205","358826","0.0-3.0-1.98","20","3","
    <div class = 'grid-container'>
        <div class='header-text'> Friends </div>
        <div>
            Emily
            <img width='150' style='border:2px black solid;' src='stims/img/CFD-LF-251-057-N.jpg'>
        </div>
        <div> &nbsp; + &nbsp; </div>
        <div>
            Amy
            <img width='150' style='border:2px black solid;' src='stims/img/CFD-LF-225-164-N.jpg'>
        </div>
        <div class='header-text'> &nbsp; </div>
    </div>
    ","null","5","true","1","stims/img/CFD-LF-251-057-N.jpg","Emily","8","stims/img/CFD-LF-225-164-N.jpg","Amy","","",""
"","null","fixation","html-keyboard-response","206","359332","0.0-3.0-0.99","20","3","<div style = ""font-size:60px;""> + </div>","null","","","","","","","","","","",""
"","null","learning_trial","html-keyboard-response","207","361839","0.0-3.0-1.99","20","3","
    <div class = 'grid-container'>
        <div class='header-text'> Friends </div>
        <div>
            Mia
            <img width='150' style='border:2px black solid;' src='stims/img/CFD-BF-216-132-N.jpg'>
        </div>
        <div> &nbsp; + &nbsp; </div>
        <div>
            Matthew
            <img width='150' style='border:2px black solid;' src='stims/img/CFD-WM-230-131-N.jpg'>
        </div>
        <div class='header-text'> &nbsp; </div>
    </div>
    ","null","5","true","3","stims/img/CFD-BF-216-132-N.jpg","Mia","4","stims/img/CFD-WM-230-131-N.jpg","Matthew","","",""
"","null","fixation","html-keyboard-response","208","362346","0.0-3.0-0.100","20","3","<div style = ""font-size:60px;""> + </div>","null","","","","","","","","","","",""
"","null","learning_trial","html-keyboard-response","209","364853","0.0-3.0-1.100","20","3","
    <div class = 'grid-container'>
        <div class='header-text'> Friends </div>
        <div>
            Alexandra
            <img width='150' style='border:2px black solid;' src='stims/img/CFD-WF-214-122-N.jpg'>
        </div>
        <div> &nbsp; + &nbsp; </div>
        <div>
            Aiden
            <img width='150' style='border:2px black solid;' src='stims/img/CFD-BM-210-148-N.jpg'>
        </div>
        <div class='header-text'> &nbsp; </div>
    </div>
    ","null","5","false","11","stims/img/CFD-BM-210-148-N.jpg","Aiden","13","stims/img/CFD-WF-214-122-N.jpg","Alexandra","","",""
"","null","fixation","html-keyboard-response","210","365359","0.0-3.0-0.101","20","3","<div style = ""font-size:60px;""> + </div>","null","","","","","","","","","","",""
"","null","learning_trial","html-keyboard-response","211","367866","0.0-3.0-1.101","20","3","
    <div class = 'grid-container'>
        <div class='header-text'> Friends </div>
        <div>
            Isaiah
            <img width='150' style='border:2px black solid;' src='stims/img/CFD-BM-207-024-N.jpg'>
        </div>
        <div> &nbsp; + &nbsp; </div>
        <div>
            Nia
            <img width='150' style='border:2px black solid;' src='stims/img/CFD-BF-223-250-N.jpg'>
        </div>
        <div class='header-text'> &nbsp; </div>
    </div>
    ","null","5","true","6","stims/img/CFD-BM-207-024-N.jpg","Isaiah","7","stims/img/CFD-BF-223-250-N.jpg","Nia","","",""
"","1187","break","html-keyboard-response","212","369056","0.0-3.0-2.101-0.101","20","3","If you'd like to take a break before continuing, 
    please do so now. <p>To continue, please press the spacebar.</p>"," ","","","","","","","","","","",""
"","null","fixation","html-keyboard-response","213","369561","0.0-3.0-0.102","20","3","<div style = ""font-size:60px;""> + </div>","null","","","","","","","","","","",""
"","null","learning_trial","html-keyboard-response","214","372064","0.0-3.0-1.102","20","3","
    <div class = 'grid-container'>
        <div class='header-text'> Friends </div>
        <div>
            Nia
            <img width='150' style='border:2px black solid;' src='stims/img/CFD-BF-223-250-N.jpg'>
        </div>
        <div> &nbsp; + &nbsp; </div>
        <div>
            Sophia
            <img width='150' style='border:2px black solid;' src='stims/img/CFD-WF-219-038-N.jpg'>
        </div>
        <div class='header-text'> &nbsp; </div>
    </div>
    ","null","6","false","5","stims/img/CFD-WF-219-038-N.jpg","Sophia","7","stims/img/CFD-BF-223-250-N.jpg","Nia","","",""
"","null","fixation","html-keyboard-response","215","372571","0.0-3.0-0.103","20","3","<div style = ""font-size:60px;""> + </div>","null","","","","","","","","","","",""
"","null","learning_trial","html-keyboard-response","216","375076","0.0-3.0-1.103","20","3","
    <div class = 'grid-container'>
        <div class='header-text'> Friends </div>
        <div>
            Andrew
            <img width='150' style='border:2px black solid;' src='stims/img/CFD-AM-225-102-N.jpg'>
        </div>
        <div> &nbsp; + &nbsp; </div>
        <div>
            Joseph
            <img width='150' style='border:2px black solid;' src='stims/img/CFD-WM-231-112-N.jpg'>
        </div>
        <div class='header-text'> &nbsp; </div>
    </div>
    ","null","6","false","10","stims/img/CFD-WM-231-112-N.jpg","Joseph","12","stims/img/CFD-AM-225-102-N.jpg","Andrew","","",""
"","null","fixation","html-keyboard-response","217","375582","0.0-3.0-0.104","20","3","<div style = ""font-size:60px;""> + </div>","null","","","","","","","","","","",""
"","null","learning_trial","html-keyboard-response","218","378090","0.0-3.0-1.104","20","3","
    <div class = 'grid-container'>
        <div class='header-text'> Friends </div>
        <div>
            Christopher
            <img width='150' style='border:2px black solid;' src='stims/img/CFD-LM-223-175-N.jpg'>
        </div>
        <div> &nbsp; + &nbsp; </div>
        <div>
            Matthew
            <img width='150' style='border:2px black solid;' src='stims/img/CFD-WM-230-131-N.jpg'>
        </div>
        <div class='header-text'> &nbsp; </div>
    </div>
    ","null","6","true","2","stims/img/CFD-LM-223-175-N.jpg","Christopher","4","stims/img/CFD-WM-230-131-N.jpg","Matthew","","",""
"","null","fixation","html-keyboard-response","219","378596","0.0-3.0-0.105","20","3","<div style = ""font-size:60px;""> + </div>","null","","","","","","","","","","",""
"","null","learning_trial","html-keyboard-response","220","381103","0.0-3.0-1.105","20","3","
    <div class = 'grid-container'>
        <div class='header-text'> Friends </div>
        <div>
            Christopher
            <img width='150' style='border:2px black solid;' src='stims/img/CFD-LM-223-175-N.jpg'>
        </div>
        <div> &nbsp; + &nbsp; </div>
        <div>
            Emily
            <img width='150' style='border:2px black solid;' src='stims/img/CFD-LF-251-057-N.jpg'>
        </div>
        <div class='header-text'> &nbsp; </div>
    </div>
    ","null","6","false","1","stims/img/CFD-LF-251-057-N.jpg","Emily","2","stims/img/CFD-LM-223-175-N.jpg","Christopher","","",""
"","null","fixation","html-keyboard-response","221","381609","0.0-3.0-0.106","20","3","<div style = ""font-size:60px;""> + </div>","null","","","","","","","","","","",""
"","null","learning_trial","html-keyboard-response","222","384116","0.0-3.0-1.106","20","3","
    <div class = 'grid-container'>
        <div class='header-text'> Friends </div>
        <div>
            Andrew
            <img width='150' style='border:2px black solid;' src='stims/img/CFD-AM-225-102-N.jpg'>
        </div>
        <div> &nbsp; + &nbsp; </div>
        <div>
            Aiden
            <img width='150' style='border:2px black solid;' src='stims/img/CFD-BM-210-148-N.jpg'>
        </div>
        <div class='header-text'> &nbsp; </div>
    </div>
    ","null","6","false","11","stims/img/CFD-BM-210-148-N.jpg","Aiden","12","stims/img/CFD-AM-225-102-N.jpg","Andrew","","",""
"","null","fixation","html-keyboard-response","223","384623","0.0-3.0-0.107","20","3","<div style = ""font-size:60px;""> + </div>","null","","","","","","","","","","",""
"","null","learning_trial","html-keyboard-response","224","387130","0.0-3.0-1.107","20","3","
    <div class = 'grid-container'>
        <div class='header-text'> Friends </div>
        <div>
            Isaiah
            <img width='150' style='border:2px black solid;' src='stims/img/CFD-BM-207-024-N.jpg'>
        </div>
        <div> &nbsp; + &nbsp; </div>
        <div>
            Matthew
            <img width='150' style='border:2px black solid;' src='stims/img/CFD-WM-230-131-N.jpg'>
        </div>
        <div class='header-text'> &nbsp; </div>
    </div>
    ","null","6","false","4","stims/img/CFD-WM-230-131-N.jpg","Matthew","6","stims/img/CFD-BM-207-024-N.jpg","Isaiah","","",""
"","null","fixation","html-keyboard-response","225","387635","0.0-3.0-0.108","20","3","<div style = ""font-size:60px;""> + </div>","null","","","","","","","","","","",""
"","null","learning_trial","html-keyboard-response","226","390142","0.0-3.0-1.108","20","3","
    <div class = 'grid-container'>
        <div class='header-text'> Friends </div>
        <div>
            Christopher
            <img width='150' style='border:2px black solid;' src='stims/img/CFD-LM-223-175-N.jpg'>
        </div>
        <div> &nbsp; + &nbsp; </div>
        <div>
            Mia
            <img width='150' style='border:2px black solid;' src='stims/img/CFD-BF-216-132-N.jpg'>
        </div>
        <div class='header-text'> &nbsp; </div>
    </div>
    ","null","6","true","2","stims/img/CFD-LM-223-175-N.jpg","Christopher","3","stims/img/CFD-BF-216-132-N.jpg","Mia","","",""
"","null","fixation","html-keyboard-response","227","390649","0.0-3.0-0.109","20","3","<div style = ""font-size:60px;""> + </div>","null","","","","","","","","","","",""
"","null","learning_trial","html-keyboard-response","228","393156","0.0-3.0-1.109","20","3","
    <div class = 'grid-container'>
        <div class='header-text'> Friends </div>
        <div>
            Aiden
            <img width='150' style='border:2px black solid;' src='stims/img/CFD-BM-210-148-N.jpg'>
        </div>
        <div> &nbsp; + &nbsp; </div>
        <div>
            Emma
            <img width='150' style='border:2px black solid;' src='stims/img/CFD-AF-211-066-N.jpg'>
        </div>
        <div class='header-text'> &nbsp; </div>
    </div>
    ","null","6","false","9","stims/img/CFD-AF-211-066-N.jpg","Emma","11","stims/img/CFD-BM-210-148-N.jpg","Aiden","","",""
"","null","fixation","html-keyboard-response","229","393662","0.0-3.0-0.110","20","3","<div style = ""font-size:60px;""> + </div>","null","","","","","","","","","","",""
"","null","learning_trial","html-keyboard-response","230","396169","0.0-3.0-1.110","20","3","
    <div class = 'grid-container'>
        <div class='header-text'> Friends </div>
        <div>
            Joseph
            <img width='150' style='border:2px black solid;' src='stims/img/CFD-WM-231-112-N.jpg'>
        </div>
        <div> &nbsp; + &nbsp; </div>
        <div>
            Amy
            <img width='150' style='border:2px black solid;' src='stims/img/CFD-LF-225-164-N.jpg'>
        </div>
        <div class='header-text'> &nbsp; </div>
    </div>
    ","null","6","false","8","stims/img/CFD-LF-225-164-N.jpg","Amy","10","stims/img/CFD-WM-231-112-N.jpg","Joseph","","",""
"","null","fixation","html-keyboard-response","231","396675","0.0-3.0-0.111","20","3","<div style = ""font-size:60px;""> + </div>","null","","","","","","","","","","",""
"","null","learning_trial","html-keyboard-response","232","399183","0.0-3.0-1.111","20","3","
    <div class = 'grid-container'>
        <div class='header-text'> Friends </div>
        <div>
            Emily
            <img width='150' style='border:2px black solid;' src='stims/img/CFD-LF-251-057-N.jpg'>
        </div>
        <div> &nbsp; + &nbsp; </div>
        <div>
            Amy
            <img width='150' style='border:2px black solid;' src='stims/img/CFD-LF-225-164-N.jpg'>
        </div>
        <div class='header-text'> &nbsp; </div>
    </div>
    ","null","6","true","1","stims/img/CFD-LF-251-057-N.jpg","Emily","8","stims/img/CFD-LF-225-164-N.jpg","Amy","","",""
"","null","fixation","html-keyboard-response","233","399688","0.0-3.0-0.112","20","3","<div style = ""font-size:60px;""> + </div>","null","","","","","","","","","","",""
"","null","learning_trial","html-keyboard-response","234","402195","0.0-3.0-1.112","20","3","
    <div class = 'grid-container'>
        <div class='header-text'> Friends </div>
        <div>
            Alexandra
            <img width='150' style='border:2px black solid;' src='stims/img/CFD-WF-214-122-N.jpg'>
        </div>
        <div> &nbsp; + &nbsp; </div>
        <div>
            Andrew
            <img width='150' style='border:2px black solid;' src='stims/img/CFD-AM-225-102-N.jpg'>
        </div>
        <div class='header-text'> &nbsp; </div>
    </div>
    ","null","6","false","12","stims/img/CFD-AM-225-102-N.jpg","Andrew","13","stims/img/CFD-WF-214-122-N.jpg","Alexandra","","",""
