"view_history","rt","trial_purpose","trial_type","trial_index","time_elapsed","internal_node_id","sub_id","bonus","stimulus","response","rep","display_left","from_id","from_face","from_name","to_id","to_face","to_name","friendship","correct","slider_start"
"[{""page_index"":0,""viewing_time"":2615}]","2616","confirm_correct","instructions","0","2616","0.0-0.0","14","3","","","","","","","","","","","","",""
"[{""page_index"":0,""viewing_time"":272442},{""page_index"":1,""viewing_time"":13851},{""page_index"":2,""viewing_time"":2033}]","288326","instructions","instructions","1","290933","0.0-1.0","14","3","","","","","","","","","","","","",""
"[{""page_index"":0,""viewing_time"":5679},{""page_index"":1,""viewing_time"":6466},{""page_index"":2,""viewing_time"":9734},{""page_index"":3,""viewing_time"":6700}]","28579","instructions","instructions","2","319515","0.0-2.0","14","3","","","","","","","","","","","","",""
"","null","fixation","html-keyboard-response","3","320022","0.0-3.0-0.0","14","3","<div style = ""font-size:60px;""> + </div>","null","","","","","","","","","","",""
"","null","learning_trial","html-keyboard-response","4","322532","0.0-3.0-1.0","14","3","
    <div class = 'grid-container'>
        <div class='header-text'> Friends </div>
        <div>
            Justin
            <img width='150' style='border:2px black solid;' src='stims/img/CFD-BM-246-192-N.jpg'>
        </div>
        <div> &nbsp; + &nbsp; </div>
        <div>
            David
            <img width='150' style='border:2px black solid;' src='stims/img/CFD-BM-226-276-N.jpg'>
        </div>
        <div class='header-text'> &nbsp; </div>
    </div>
    ","null","0","true","3","stims/img/CFD-BM-246-192-N.jpg","Justin","5","stims/img/CFD-BM-226-276-N.jpg","David","","",""
"","null","fixation","html-keyboard-response","5","323037","0.0-3.0-0.1","14","3","<div style = ""font-size:60px;""> + </div>","null","","","","","","","","","","",""
"","null","learning_trial","html-keyboard-response","6","325543","0.0-3.0-1.1","14","3","
    <div class = 'grid-container'>
        <div class='header-text'> Friends </div>
        <div>
            Lucas
            <img width='150' style='border:2px black solid;' src='stims/img/CFD-LM-244-068-N.jpg'>
        </div>
        <div> &nbsp; + &nbsp; </div>
        <div>
            Jonathan
            <img width='150' style='border:2px black solid;' src='stims/img/CFD-AM-251-124-N.jpg'>
        </div>
        <div class='header-text'> &nbsp; </div>
    </div>
    ","null","0","true","6","stims/img/CFD-LM-244-068-N.jpg","Lucas","7","stims/img/CFD-AM-251-124-N.jpg","Jonathan","","",""
"","null","fixation","html-keyboard-response","7","326051","0.0-3.0-0.2","14","3","<div style = ""font-size:60px;""> + </div>","null","","","","","","","","","","",""
"","null","learning_trial","html-keyboard-response","8","328558","0.0-3.0-1.2","14","3","
    <div class = 'grid-container'>
        <div class='header-text'> Friends </div>
        <div>
            Melanie
            <img width='150' style='border:2px black solid;' src='stims/img/CFD-LF-207-198-N.jpg'>
        </div>
        <div> &nbsp; + &nbsp; </div>
        <div>
            Mia
            <img width='150' style='border:2px black solid;' src='stims/img/CFD-WF-208-068-N.jpg'>
        </div>
        <div class='header-text'> &nbsp; </div>
    </div>
    ","null","0","true","2","stims/img/CFD-LF-207-198-N.jpg","Melanie","4","stims/img/CFD-WF-208-068-N.jpg","Mia","","",""
"","null","fixation","html-keyboard-response","9","329065","0.0-3.0-0.3","14","3","<div style = ""font-size:60px;""> + </div>","null","","","","","","","","","","",""
"","null","learning_trial","html-keyboard-response","10","331573","0.0-3.0-1.3","14","3","
    <div class = 'grid-container'>
        <div class='header-text'> Friends </div>
        <div>
            Mia
            <img width='150' style='border:2px black solid;' src='stims/img/CFD-WF-208-068-N.jpg'>
        </div>
        <div> &nbsp; + &nbsp; </div>
        <div>
            Lucas
            <img width='150' style='border:2px black solid;' src='stims/img/CFD-LM-244-068-N.jpg'>
        </div>
        <div class='header-text'> &nbsp; </div>
    </div>
    ","null","0","true","4","stims/img/CFD-WF-208-068-N.jpg","Mia","6","stims/img/CFD-LM-244-068-N.jpg","Lucas","","",""
"","null","fixation","html-keyboard-response","11","332079","0.0-3.0-0.4","14","3","<div style = ""font-size:60px;""> + </div>","null","","","","","","","","","","",""
"","null","learning_trial","html-keyboard-response","12","334586","0.0-3.0-1.4","14","3","
    <div class = 'grid-container'>
        <div class='header-text'> Friends </div>
        <div>
            David
            <img width='150' style='border:2px black solid;' src='stims/img/CFD-BM-226-276-N.jpg'>
        </div>
        <div> &nbsp; + &nbsp; </div>
        <div>
            Mia
            <img width='150' style='border:2px black solid;' src='stims/img/CFD-WF-208-068-N.jpg'>
        </div>
        <div class='header-text'> &nbsp; </div>
    </div>
    ","null","0","false","4","stims/img/CFD-WF-208-068-N.jpg","Mia","5","stims/img/CFD-BM-226-276-N.jpg","David","","",""
"","null","fixation","html-keyboard-response","13","335090","0.0-3.0-0.5","14","3","<div style = ""font-size:60px;""> + </div>","null","","","","","","","","","","",""
"","null","learning_trial","html-keyboard-response","14","337595","0.0-3.0-1.5","14","3","
    <div class = 'grid-container'>
        <div class='header-text'> Friends </div>
        <div>
            Ashley
            <img width='150' style='border:2px black solid;' src='stims/img/CFD-AF-250-200-N.jpg'>
        </div>
        <div> &nbsp; + &nbsp; </div>
        <div>
            Ella
            <img width='150' style='border:2px black solid;' src='stims/img/CFD-WF-206-147-N.jpg'>
        </div>
        <div class='header-text'> &nbsp; </div>
    </div>
    ","null","0","true","8","stims/img/CFD-AF-250-200-N.jpg","Ashley","9","stims/img/CFD-WF-206-147-N.jpg","Ella","","",""
"","null","fixation","html-keyboard-response","15","338101","0.0-3.0-0.6","14","3","<div style = ""font-size:60px;""> + </div>","null","","","","","","","","","","",""
"","null","learning_trial","html-keyboard-response","16","340609","0.0-3.0-1.6","14","3","
    <div class = 'grid-container'>
        <div class='header-text'> Friends </div>
        <div>
            Makayla
            <img width='150' style='border:2px black solid;' src='stims/img/CFD-BF-247-179-N.jpg'>
        </div>
        <div> &nbsp; + &nbsp; </div>
        <div>
            Ashley
            <img width='150' style='border:2px black solid;' src='stims/img/CFD-AF-250-200-N.jpg'>
        </div>
        <div class='header-text'> &nbsp; </div>
    </div>
    ","null","0","false","8","stims/img/CFD-AF-250-200-N.jpg","Ashley","10","stims/img/CFD-BF-247-179-N.jpg","Makayla","","",""
"","null","fixation","html-keyboard-response","17","341115","0.0-3.0-0.7","14","3","<div style = ""font-size:60px;""> + </div>","null","","","","","","","","","","",""
"","null","learning_trial","html-keyboard-response","18","343622","0.0-3.0-1.7","14","3","
    <div class = 'grid-container'>
        <div class='header-text'> Friends </div>
        <div>
            Justin
            <img width='150' style='border:2px black solid;' src='stims/img/CFD-BM-246-192-N.jpg'>
        </div>
        <div> &nbsp; + &nbsp; </div>
        <div>
            Melanie
            <img width='150' style='border:2px black solid;' src='stims/img/CFD-LF-207-198-N.jpg'>
        </div>
        <div class='header-text'> &nbsp; </div>
    </div>
    ","null","0","false","2","stims/img/CFD-LF-207-198-N.jpg","Melanie","3","stims/img/CFD-BM-246-192-N.jpg","Justin","","",""
"","null","fixation","html-keyboard-response","19","344129","0.0-3.0-0.8","14","3","<div style = ""font-size:60px;""> + </div>","null","","","","","","","","","","",""
"","null","learning_trial","html-keyboard-response","20","346631","0.0-3.0-1.8","14","3","
    <div class = 'grid-container'>
        <div class='header-text'> Friends </div>
        <div>
            Isabella
            <img width='150' style='border:2px black solid;' src='stims/img/CFD-AF-211-066-N.jpg'>
        </div>
        <div> &nbsp; + &nbsp; </div>
        <div>
            Jayden
            <img width='150' style='border:2px black solid;' src='stims/img/CFD-AM-238-269-N.jpg'>
        </div>
        <div class='header-text'> &nbsp; </div>
    </div>
    ","null","0","false","11","stims/img/CFD-AM-238-269-N.jpg","Jayden","13","stims/img/CFD-AF-211-066-N.jpg","Isabella","","",""
"","null","fixation","html-keyboard-response","21","347138","0.0-3.0-0.9","14","3","<div style = ""font-size:60px;""> + </div>","null","","","","","","","","","","",""
"","null","learning_trial","html-keyboard-response","22","349646","0.0-3.0-1.9","14","3","
    <div class = 'grid-container'>
        <div class='header-text'> Friends </div>
        <div>
            Anthony
            <img width='150' style='border:2px black solid;' src='stims/img/CFD-WM-218-074-N.jpg'>
        </div>
        <div> &nbsp; + &nbsp; </div>
        <div>
            Ashley
            <img width='150' style='border:2px black solid;' src='stims/img/CFD-AF-250-200-N.jpg'>
        </div>
        <div class='header-text'> &nbsp; </div>
    </div>
    ","null","0","true","1","stims/img/CFD-WM-218-074-N.jpg","Anthony","8","stims/img/CFD-AF-250-200-N.jpg","Ashley","","",""
"","null","fixation","html-keyboard-response","23","350151","0.0-3.0-0.10","14","3","<div style = ""font-size:60px;""> + </div>","null","","","","","","","","","","",""
"","null","learning_trial","html-keyboard-response","24","352658","0.0-3.0-1.10","14","3","
    <div class = 'grid-container'>
        <div class='header-text'> Friends </div>
        <div>
            Savannah
            <img width='150' style='border:2px black solid;' src='stims/img/CFD-BF-217-189-N.jpg'>
        </div>
        <div> &nbsp; + &nbsp; </div>
        <div>
            Makayla
            <img width='150' style='border:2px black solid;' src='stims/img/CFD-BF-247-179-N.jpg'>
        </div>
        <div class='header-text'> &nbsp; </div>
    </div>
    ","null","0","false","10","stims/img/CFD-BF-247-179-N.jpg","Makayla","12","stims/img/CFD-BF-217-189-N.jpg","Savannah","","",""
"","null","fixation","html-keyboard-response","25","353165","0.0-3.0-0.11","14","3","<div style = ""font-size:60px;""> + </div>","null","","","","","","","","","","",""
"","null","learning_trial","html-keyboard-response","26","355671","0.0-3.0-1.11","14","3","
    <div class = 'grid-container'>
        <div class='header-text'> Friends </div>
        <div>
            Melanie
            <img width='150' style='border:2px black solid;' src='stims/img/CFD-LF-207-198-N.jpg'>
        </div>
        <div> &nbsp; + &nbsp; </div>
        <div>
            Anthony
            <img width='150' style='border:2px black solid;' src='stims/img/CFD-WM-218-074-N.jpg'>
        </div>
        <div class='header-text'> &nbsp; </div>
    </div>
    ","null","0","false","1","stims/img/CFD-WM-218-074-N.jpg","Anthony","2","stims/img/CFD-LF-207-198-N.jpg","Melanie","","",""
"","null","fixation","html-keyboard-response","27","356177","0.0-3.0-0.12","14","3","<div style = ""font-size:60px;""> + </div>","null","","","","","","","","","","",""
"","null","learning_trial","html-keyboard-response","28","358684","0.0-3.0-1.12","14","3","
    <div class = 'grid-container'>
        <div class='header-text'> Friends </div>
        <div>
            Savannah
            <img width='150' style='border:2px black solid;' src='stims/img/CFD-BF-217-189-N.jpg'>
        </div>
        <div> &nbsp; + &nbsp; </div>
        <div>
            Isabella
            <img width='150' style='border:2px black solid;' src='stims/img/CFD-AF-211-066-N.jpg'>
        </div>
        <div class='header-text'> &nbsp; </div>
    </div>
    ","null","0","true","12","stims/img/CFD-BF-217-189-N.jpg","Savannah","13","stims/img/CFD-AF-211-066-N.jpg","Isabella","","",""
"","null","fixation","html-keyboard-response","29","359190","0.0-3.0-0.13","14","3","<div style = ""font-size:60px;""> + </div>","null","","","","","","","","","","",""
"","null","learning_trial","html-keyboard-response","30","361693","0.0-3.0-1.13","14","3","
    <div class = 'grid-container'>
        <div class='header-text'> Friends </div>
        <div>
            Jonathan
            <img width='150' style='border:2px black solid;' src='stims/img/CFD-AM-251-124-N.jpg'>
        </div>
        <div> &nbsp; + &nbsp; </div>
        <div>
            David
            <img width='150' style='border:2px black solid;' src='stims/img/CFD-BM-226-276-N.jpg'>
        </div>
        <div class='header-text'> &nbsp; </div>
    </div>
    ","null","0","false","5","stims/img/CFD-BM-226-276-N.jpg","David","7","stims/img/CFD-AM-251-124-N.jpg","Jonathan","","",""
"","null","fixation","html-keyboard-response","31","362193","0.0-3.0-0.14","14","3","<div style = ""font-size:60px;""> + </div>","null","","","","","","","","","","",""
"","null","learning_trial","html-keyboard-response","32","364700","0.0-3.0-1.14","14","3","
    <div class = 'grid-container'>
        <div class='header-text'> Friends </div>
        <div>
            Ella
            <img width='150' style='border:2px black solid;' src='stims/img/CFD-WF-206-147-N.jpg'>
        </div>
        <div> &nbsp; + &nbsp; </div>
        <div>
            Jayden
            <img width='150' style='border:2px black solid;' src='stims/img/CFD-AM-238-269-N.jpg'>
        </div>
        <div class='header-text'> &nbsp; </div>
    </div>
    ","null","0","true","9","stims/img/CFD-WF-206-147-N.jpg","Ella","11","stims/img/CFD-AM-238-269-N.jpg","Jayden","","",""
"","null","fixation","html-keyboard-response","33","365202","0.0-3.0-0.15","14","3","<div style = ""font-size:60px;""> + </div>","null","","","","","","","","","","",""
"","null","learning_trial","html-keyboard-response","34","367708","0.0-3.0-1.15","14","3","
    <div class = 'grid-container'>
        <div class='header-text'> Friends </div>
        <div>
            Justin
            <img width='150' style='border:2px black solid;' src='stims/img/CFD-BM-246-192-N.jpg'>
        </div>
        <div> &nbsp; + &nbsp; </div>
        <div>
            Mia
            <img width='150' style='border:2px black solid;' src='stims/img/CFD-WF-208-068-N.jpg'>
        </div>
        <div class='header-text'> &nbsp; </div>
    </div>
    ","null","0","true","3","stims/img/CFD-BM-246-192-N.jpg","Justin","4","stims/img/CFD-WF-208-068-N.jpg","Mia","","",""
"","null","fixation","html-keyboard-response","35","368215","0.0-3.0-0.16","14","3","<div style = ""font-size:60px;""> + </div>","null","","","","","","","","","","",""
"","null","learning_trial","html-keyboard-response","36","370722","0.0-3.0-1.16","14","3","
    <div class = 'grid-container'>
        <div class='header-text'> Friends </div>
        <div>
            Savannah
            <img width='150' style='border:2px black solid;' src='stims/img/CFD-BF-217-189-N.jpg'>
        </div>
        <div> &nbsp; + &nbsp; </div>
        <div>
            Jayden
            <img width='150' style='border:2px black solid;' src='stims/img/CFD-AM-238-269-N.jpg'>
        </div>
        <div class='header-text'> &nbsp; </div>
    </div>
    ","null","0","false","11","stims/img/CFD-AM-238-269-N.jpg","Jayden","12","stims/img/CFD-BF-217-189-N.jpg","Savannah","","",""
"","5557","break","html-keyboard-response","37","376280","0.0-3.0-2.16-0.16","14","3","If you'd like to take a break before continuing, 
    please do so now. <p>To continue, please press the spacebar.</p>"," ","","","","","","","","","","",""
"","null","fixation","html-keyboard-response","38","376786","0.0-3.0-0.17","14","3","<div style = ""font-size:60px;""> + </div>","null","","","","","","","","","","",""
"","null","learning_trial","html-keyboard-response","39","379292","0.0-3.0-1.17","14","3","
    <div class = 'grid-container'>
        <div class='header-text'> Friends </div>
        <div>
            Justin
            <img width='150' style='border:2px black solid;' src='stims/img/CFD-BM-246-192-N.jpg'>
        </div>
        <div> &nbsp; + &nbsp; </div>
        <div>
            Mia
            <img width='150' style='border:2px black solid;' src='stims/img/CFD-WF-208-068-N.jpg'>
        </div>
        <div class='header-text'> &nbsp; </div>
    </div>
    ","null","1","true","3","stims/img/CFD-BM-246-192-N.jpg","Justin","4","stims/img/CFD-WF-208-068-N.jpg","Mia","","",""
"","null","fixation","html-keyboard-response","40","379799","0.0-3.0-0.18","14","3","<div style = ""font-size:60px;""> + </div>","null","","","","","","","","","","",""
"","null","learning_trial","html-keyboard-response","41","382305","0.0-3.0-1.18","14","3","
    <div class = 'grid-container'>
        <div class='header-text'> Friends </div>
        <div>
            Savannah
            <img width='150' style='border:2px black solid;' src='stims/img/CFD-BF-217-189-N.jpg'>
        </div>
        <div> &nbsp; + &nbsp; </div>
        <div>
            Isabella
            <img width='150' style='border:2px black solid;' src='stims/img/CFD-AF-211-066-N.jpg'>
        </div>
        <div class='header-text'> &nbsp; </div>
    </div>
    ","null","1","true","12","stims/img/CFD-BF-217-189-N.jpg","Savannah","13","stims/img/CFD-AF-211-066-N.jpg","Isabella","","",""
"","null","fixation","html-keyboard-response","42","382812","0.0-3.0-0.19","14","3","<div style = ""font-size:60px;""> + </div>","null","","","","","","","","","","",""
"","null","learning_trial","html-keyboard-response","43","385320","0.0-3.0-1.19","14","3","
    <div class = 'grid-container'>
        <div class='header-text'> Friends </div>
        <div>
            Makayla
            <img width='150' style='border:2px black solid;' src='stims/img/CFD-BF-247-179-N.jpg'>
        </div>
        <div> &nbsp; + &nbsp; </div>
        <div>
            Ashley
            <img width='150' style='border:2px black solid;' src='stims/img/CFD-AF-250-200-N.jpg'>
        </div>
        <div class='header-text'> &nbsp; </div>
    </div>
    ","null","1","false","8","stims/img/CFD-AF-250-200-N.jpg","Ashley","10","stims/img/CFD-BF-247-179-N.jpg","Makayla","","",""
"","null","fixation","html-keyboard-response","44","385827","0.0-3.0-0.20","14","3","<div style = ""font-size:60px;""> + </div>","null","","","","","","","","","","",""
"","null","learning_trial","html-keyboard-response","45","388333","0.0-3.0-1.20","14","3","
    <div class = 'grid-container'>
        <div class='header-text'> Friends </div>
        <div>
            Justin
            <img width='150' style='border:2px black solid;' src='stims/img/CFD-BM-246-192-N.jpg'>
        </div>
        <div> &nbsp; + &nbsp; </div>
        <div>
            Melanie
            <img width='150' style='border:2px black solid;' src='stims/img/CFD-LF-207-198-N.jpg'>
        </div>
        <div class='header-text'> &nbsp; </div>
    </div>
    ","null","1","false","2","stims/img/CFD-LF-207-198-N.jpg","Melanie","3","stims/img/CFD-BM-246-192-N.jpg","Justin","","",""
"","null","fixation","html-keyboard-response","46","388839","0.0-3.0-0.21","14","3","<div style = ""font-size:60px;""> + </div>","null","","","","","","","","","","",""
"","null","learning_trial","html-keyboard-response","47","391346","0.0-3.0-1.21","14","3","
    <div class = 'grid-container'>
        <div class='header-text'> Friends </div>
        <div>
            David
            <img width='150' style='border:2px black solid;' src='stims/img/CFD-BM-226-276-N.jpg'>
        </div>
        <div> &nbsp; + &nbsp; </div>
        <div>
            Jonathan
            <img width='150' style='border:2px black solid;' src='stims/img/CFD-AM-251-124-N.jpg'>
        </div>
        <div class='header-text'> &nbsp; </div>
    </div>
    ","null","1","true","5","stims/img/CFD-BM-226-276-N.jpg","David","7","stims/img/CFD-AM-251-124-N.jpg","Jonathan","","",""
"","null","fixation","html-keyboard-response","48","391853","0.0-3.0-0.22","14","3","<div style = ""font-size:60px;""> + </div>","null","","","","","","","","","","",""
"","null","learning_trial","html-keyboard-response","49","394360","0.0-3.0-1.22","14","3","
    <div class = 'grid-container'>
        <div class='header-text'> Friends </div>
        <div>
            Ella
            <img width='150' style='border:2px black solid;' src='stims/img/CFD-WF-206-147-N.jpg'>
        </div>
        <div> &nbsp; + &nbsp; </div>
        <div>
            Jayden
            <img width='150' style='border:2px black solid;' src='stims/img/CFD-AM-238-269-N.jpg'>
        </div>
        <div class='header-text'> &nbsp; </div>
    </div>
    ","null","1","true","9","stims/img/CFD-WF-206-147-N.jpg","Ella","11","stims/img/CFD-AM-238-269-N.jpg","Jayden","","",""
"","null","fixation","html-keyboard-response","50","394867","0.0-3.0-0.23","14","3","<div style = ""font-size:60px;""> + </div>","null","","","","","","","","","","",""
"","null","learning_trial","html-keyboard-response","51","397373","0.0-3.0-1.23","14","3","
    <div class = 'grid-container'>
        <div class='header-text'> Friends </div>
        <div>
            Lucas
            <img width='150' style='border:2px black solid;' src='stims/img/CFD-LM-244-068-N.jpg'>
        </div>
        <div> &nbsp; + &nbsp; </div>
        <div>
            Mia
            <img width='150' style='border:2px black solid;' src='stims/img/CFD-WF-208-068-N.jpg'>
        </div>
        <div class='header-text'> &nbsp; </div>
    </div>
    ","null","1","false","4","stims/img/CFD-WF-208-068-N.jpg","Mia","6","stims/img/CFD-LM-244-068-N.jpg","Lucas","","",""
"","null","fixation","html-keyboard-response","52","397880","0.0-3.0-0.24","14","3","<div style = ""font-size:60px;""> + </div>","null","","","","","","","","","","",""
"","null","learning_trial","html-keyboard-response","53","400387","0.0-3.0-1.24","14","3","
    <div class = 'grid-container'>
        <div class='header-text'> Friends </div>
        <div>
            David
            <img width='150' style='border:2px black solid;' src='stims/img/CFD-BM-226-276-N.jpg'>
        </div>
        <div> &nbsp; + &nbsp; </div>
        <div>
            Justin
            <img width='150' style='border:2px black solid;' src='stims/img/CFD-BM-246-192-N.jpg'>
        </div>
        <div class='header-text'> &nbsp; </div>
    </div>
    ","null","1","false","3","stims/img/CFD-BM-246-192-N.jpg","Justin","5","stims/img/CFD-BM-226-276-N.jpg","David","","",""
"","null","fixation","html-keyboard-response","54","400893","0.0-3.0-0.25","14","3","<div style = ""font-size:60px;""> + </div>","null","","","","","","","","","","",""
"","null","learning_trial","html-keyboard-response","55","403399","0.0-3.0-1.25","14","3","
    <div class = 'grid-container'>
        <div class='header-text'> Friends </div>
        <div>
            Ashley
            <img width='150' style='border:2px black solid;' src='stims/img/CFD-AF-250-200-N.jpg'>
        </div>
        <div> &nbsp; + &nbsp; </div>
        <div>
            Ella
            <img width='150' style='border:2px black solid;' src='stims/img/CFD-WF-206-147-N.jpg'>
        </div>
        <div class='header-text'> &nbsp; </div>
    </div>
    ","null","1","true","8","stims/img/CFD-AF-250-200-N.jpg","Ashley","9","stims/img/CFD-WF-206-147-N.jpg","Ella","","",""
"","null","fixation","html-keyboard-response","56","403900","0.0-3.0-0.26","14","3","<div style = ""font-size:60px;""> + </div>","null","","","","","","","","","","",""
"","null","learning_trial","html-keyboard-response","57","406405","0.0-3.0-1.26","14","3","
    <div class = 'grid-container'>
        <div class='header-text'> Friends </div>
        <div>
            Mia
            <img width='150' style='border:2px black solid;' src='stims/img/CFD-WF-208-068-N.jpg'>
        </div>
        <div> &nbsp; + &nbsp; </div>
        <div>
            David
            <img width='150' style='border:2px black solid;' src='stims/img/CFD-BM-226-276-N.jpg'>
        </div>
        <div class='header-text'> &nbsp; </div>
    </div>
    ","null","1","true","4","stims/img/CFD-WF-208-068-N.jpg","Mia","5","stims/img/CFD-BM-226-276-N.jpg","David","","",""
"","null","fixation","html-keyboard-response","58","406909","0.0-3.0-0.27","14","3","<div style = ""font-size:60px;""> + </div>","null","","","","","","","","","","",""
"","null","learning_trial","html-keyboard-response","59","409415","0.0-3.0-1.27","14","3","
    <div class = 'grid-container'>
        <div class='header-text'> Friends </div>
        <div>
            Savannah
            <img width='150' style='border:2px black solid;' src='stims/img/CFD-BF-217-189-N.jpg'>
        </div>
        <div> &nbsp; + &nbsp; </div>
        <div>
            Jayden
            <img width='150' style='border:2px black solid;' src='stims/img/CFD-AM-238-269-N.jpg'>
        </div>
        <div class='header-text'> &nbsp; </div>
    </div>
    ","null","1","false","11","stims/img/CFD-AM-238-269-N.jpg","Jayden","12","stims/img/CFD-BF-217-189-N.jpg","Savannah","","",""
"","null","fixation","html-keyboard-response","60","409917","0.0-3.0-0.28","14","3","<div style = ""font-size:60px;""> + </div>","null","","","","","","","","","","",""
"","null","learning_trial","html-keyboard-response","61","412424","0.0-3.0-1.28","14","3","
    <div class = 'grid-container'>
        <div class='header-text'> Friends </div>
        <div>
            Anthony
            <img width='150' style='border:2px black solid;' src='stims/img/CFD-WM-218-074-N.jpg'>
        </div>
        <div> &nbsp; + &nbsp; </div>
        <div>
            Melanie
            <img width='150' style='border:2px black solid;' src='stims/img/CFD-LF-207-198-N.jpg'>
        </div>
        <div class='header-text'> &nbsp; </div>
    </div>
    ","null","1","true","1","stims/img/CFD-WM-218-074-N.jpg","Anthony","2","stims/img/CFD-LF-207-198-N.jpg","Melanie","","",""
"","null","fixation","html-keyboard-response","62","412930","0.0-3.0-0.29","14","3","<div style = ""font-size:60px;""> + </div>","null","","","","","","","","","","",""
"","null","learning_trial","html-keyboard-response","63","415436","0.0-3.0-1.29","14","3","
    <div class = 'grid-container'>
        <div class='header-text'> Friends </div>
        <div>
            Melanie
            <img width='150' style='border:2px black solid;' src='stims/img/CFD-LF-207-198-N.jpg'>
        </div>
        <div> &nbsp; + &nbsp; </div>
        <div>
            Mia
            <img width='150' style='border:2px black solid;' src='stims/img/CFD-WF-208-068-N.jpg'>
        </div>
        <div class='header-text'> &nbsp; </div>
    </div>
    ","null","1","true","2","stims/img/CFD-LF-207-198-N.jpg","Melanie","4","stims/img/CFD-WF-208-068-N.jpg","Mia","","",""
"","null","fixation","html-keyboard-response","64","415943","0.0-3.0-0.30","14","3","<div style = ""font-size:60px;""> + </div>","null","","","","","","","","","","",""
"","null","learning_trial","html-keyboard-response","65","418450","0.0-3.0-1.30","14","3","
    <div class = 'grid-container'>
        <div class='header-text'> Friends </div>
        <div>
            Ashley
            <img width='150' style='border:2px black solid;' src='stims/img/CFD-AF-250-200-N.jpg'>
        </div>
        <div> &nbsp; + &nbsp; </div>
        <div>
            Anthony
            <img width='150' style='border:2px black solid;' src='stims/img/CFD-WM-218-074-N.jpg'>
        </div>
        <div class='header-text'> &nbsp; </div>
    </div>
    ","null","1","false","1","stims/img/CFD-WM-218-074-N.jpg","Anthony","8","stims/img/CFD-AF-250-200-N.jpg","Ashley","","",""
"","null","fixation","html-keyboard-response","66","418951","0.0-3.0-0.31","14","3","<div style = ""font-size:60px;""> + </div>","null","","","","","","","","","","",""
"","null","learning_trial","html-keyboard-response","67","421458","0.0-3.0-1.31","14","3","
    <div class = 'grid-container'>
        <div class='header-text'> Friends </div>
        <div>
            Makayla
            <img width='150' style='border:2px black solid;' src='stims/img/CFD-BF-247-179-N.jpg'>
        </div>
        <div> &nbsp; + &nbsp; </div>
        <div>
            Savannah
            <img width='150' style='border:2px black solid;' src='stims/img/CFD-BF-217-189-N.jpg'>
        </div>
        <div class='header-text'> &nbsp; </div>
    </div>
    ","null","1","true","10","stims/img/CFD-BF-247-179-N.jpg","Makayla","12","stims/img/CFD-BF-217-189-N.jpg","Savannah","","",""
"","null","fixation","html-keyboard-response","68","421964","0.0-3.0-0.32","14","3","<div style = ""font-size:60px;""> + </div>","null","","","","","","","","","","",""
"","null","learning_trial","html-keyboard-response","69","424472","0.0-3.0-1.32","14","3","
    <div class = 'grid-container'>
        <div class='header-text'> Friends </div>
        <div>
            Jayden
            <img width='150' style='border:2px black solid;' src='stims/img/CFD-AM-238-269-N.jpg'>
        </div>
        <div> &nbsp; + &nbsp; </div>
        <div>
            Isabella
            <img width='150' style='border:2px black solid;' src='stims/img/CFD-AF-211-066-N.jpg'>
        </div>
        <div class='header-text'> &nbsp; </div>
    </div>
    ","null","1","true","11","stims/img/CFD-AM-238-269-N.jpg","Jayden","13","stims/img/CFD-AF-211-066-N.jpg","Isabella","","",""
"","null","fixation","html-keyboard-response","70","424978","0.0-3.0-0.33","14","3","<div style = ""font-size:60px;""> + </div>","null","","","","","","","","","","",""
"","null","learning_trial","html-keyboard-response","71","427485","0.0-3.0-1.33","14","3","
    <div class = 'grid-container'>
        <div class='header-text'> Friends </div>
        <div>
            Jonathan
            <img width='150' style='border:2px black solid;' src='stims/img/CFD-AM-251-124-N.jpg'>
        </div>
        <div> &nbsp; + &nbsp; </div>
        <div>
            Lucas
            <img width='150' style='border:2px black solid;' src='stims/img/CFD-LM-244-068-N.jpg'>
        </div>
        <div class='header-text'> &nbsp; </div>
    </div>
    ","null","1","false","6","stims/img/CFD-LM-244-068-N.jpg","Lucas","7","stims/img/CFD-AM-251-124-N.jpg","Jonathan","","",""
"","3788","break","html-keyboard-response","72","431274","0.0-3.0-2.33-0.33","14","3","If you'd like to take a break before continuing, 
    please do so now. <p>To continue, please press the spacebar.</p>"," ","","","","","","","","","","",""
"","null","fixation","html-keyboard-response","73","431780","0.0-3.0-0.34","14","3","<div style = ""font-size:60px;""> + </div>","null","","","","","","","","","","",""
"","null","learning_trial","html-keyboard-response","74","434286","0.0-3.0-1.34","14","3","
    <div class = 'grid-container'>
        <div class='header-text'> Friends </div>
        <div>
            Isabella
            <img width='150' style='border:2px black solid;' src='stims/img/CFD-AF-211-066-N.jpg'>
        </div>
        <div> &nbsp; + &nbsp; </div>
        <div>
            Jayden
            <img width='150' style='border:2px black solid;' src='stims/img/CFD-AM-238-269-N.jpg'>
        </div>
        <div class='header-text'> &nbsp; </div>
    </div>
    ","null","2","false","11","stims/img/CFD-AM-238-269-N.jpg","Jayden","13","stims/img/CFD-AF-211-066-N.jpg","Isabella","","",""
"","null","fixation","html-keyboard-response","75","434787","0.0-3.0-0.35","14","3","<div style = ""font-size:60px;""> + </div>","null","","","","","","","","","","",""
"","null","learning_trial","html-keyboard-response","76","437293","0.0-3.0-1.35","14","3","
    <div class = 'grid-container'>
        <div class='header-text'> Friends </div>
        <div>
            Isabella
            <img width='150' style='border:2px black solid;' src='stims/img/CFD-AF-211-066-N.jpg'>
        </div>
        <div> &nbsp; + &nbsp; </div>
        <div>
            Savannah
            <img width='150' style='border:2px black solid;' src='stims/img/CFD-BF-217-189-N.jpg'>
        </div>
        <div class='header-text'> &nbsp; </div>
    </div>
    ","null","2","false","12","stims/img/CFD-BF-217-189-N.jpg","Savannah","13","stims/img/CFD-AF-211-066-N.jpg","Isabella","","",""
"","null","fixation","html-keyboard-response","77","437799","0.0-3.0-0.36","14","3","<div style = ""font-size:60px;""> + </div>","null","","","","","","","","","","",""
"","null","learning_trial","html-keyboard-response","78","440305","0.0-3.0-1.36","14","3","
    <div class = 'grid-container'>
        <div class='header-text'> Friends </div>
        <div>
            Jayden
            <img width='150' style='border:2px black solid;' src='stims/img/CFD-AM-238-269-N.jpg'>
        </div>
        <div> &nbsp; + &nbsp; </div>
        <div>
            Savannah
            <img width='150' style='border:2px black solid;' src='stims/img/CFD-BF-217-189-N.jpg'>
        </div>
        <div class='header-text'> &nbsp; </div>
    </div>
    ","null","2","true","11","stims/img/CFD-AM-238-269-N.jpg","Jayden","12","stims/img/CFD-BF-217-189-N.jpg","Savannah","","",""
"","null","fixation","html-keyboard-response","79","440807","0.0-3.0-0.37","14","3","<div style = ""font-size:60px;""> + </div>","null","","","","","","","","","","",""
"","null","learning_trial","html-keyboard-response","80","443313","0.0-3.0-1.37","14","3","
    <div class = 'grid-container'>
        <div class='header-text'> Friends </div>
        <div>
            Jonathan
            <img width='150' style='border:2px black solid;' src='stims/img/CFD-AM-251-124-N.jpg'>
        </div>
        <div> &nbsp; + &nbsp; </div>
        <div>
            David
            <img width='150' style='border:2px black solid;' src='stims/img/CFD-BM-226-276-N.jpg'>
        </div>
        <div class='header-text'> &nbsp; </div>
    </div>
    ","null","2","false","5","stims/img/CFD-BM-226-276-N.jpg","David","7","stims/img/CFD-AM-251-124-N.jpg","Jonathan","","",""
"","null","fixation","html-keyboard-response","81","443815","0.0-3.0-0.38","14","3","<div style = ""font-size:60px;""> + </div>","null","","","","","","","","","","",""
"","null","learning_trial","html-keyboard-response","82","446322","0.0-3.0-1.38","14","3","
    <div class = 'grid-container'>
        <div class='header-text'> Friends </div>
        <div>
            Ashley
            <img width='150' style='border:2px black solid;' src='stims/img/CFD-AF-250-200-N.jpg'>
        </div>
        <div> &nbsp; + &nbsp; </div>
        <div>
            Ella
            <img width='150' style='border:2px black solid;' src='stims/img/CFD-WF-206-147-N.jpg'>
        </div>
        <div class='header-text'> &nbsp; </div>
    </div>
    ","null","2","true","8","stims/img/CFD-AF-250-200-N.jpg","Ashley","9","stims/img/CFD-WF-206-147-N.jpg","Ella","","",""
"","null","fixation","html-keyboard-response","83","446828","0.0-3.0-0.39","14","3","<div style = ""font-size:60px;""> + </div>","null","","","","","","","","","","",""
"","null","learning_trial","html-keyboard-response","84","449335","0.0-3.0-1.39","14","3","
    <div class = 'grid-container'>
        <div class='header-text'> Friends </div>
        <div>
            Ashley
            <img width='150' style='border:2px black solid;' src='stims/img/CFD-AF-250-200-N.jpg'>
        </div>
        <div> &nbsp; + &nbsp; </div>
        <div>
            Anthony
            <img width='150' style='border:2px black solid;' src='stims/img/CFD-WM-218-074-N.jpg'>
        </div>
        <div class='header-text'> &nbsp; </div>
    </div>
    ","null","2","false","1","stims/img/CFD-WM-218-074-N.jpg","Anthony","8","stims/img/CFD-AF-250-200-N.jpg","Ashley","","",""
"","null","fixation","html-keyboard-response","85","449841","0.0-3.0-0.40","14","3","<div style = ""font-size:60px;""> + </div>","null","","","","","","","","","","",""
"","null","learning_trial","html-keyboard-response","86","452348","0.0-3.0-1.40","14","3","
    <div class = 'grid-container'>
        <div class='header-text'> Friends </div>
        <div>
            Makayla
            <img width='150' style='border:2px black solid;' src='stims/img/CFD-BF-247-179-N.jpg'>
        </div>
        <div> &nbsp; + &nbsp; </div>
        <div>
            Savannah
            <img width='150' style='border:2px black solid;' src='stims/img/CFD-BF-217-189-N.jpg'>
        </div>
        <div class='header-text'> &nbsp; </div>
    </div>
    ","null","2","true","10","stims/img/CFD-BF-247-179-N.jpg","Makayla","12","stims/img/CFD-BF-217-189-N.jpg","Savannah","","",""
"","null","fixation","html-keyboard-response","87","452854","0.0-3.0-0.41","14","3","<div style = ""font-size:60px;""> + </div>","null","","","","","","","","","","",""
"","null","learning_trial","html-keyboard-response","88","455361","0.0-3.0-1.41","14","3","
    <div class = 'grid-container'>
        <div class='header-text'> Friends </div>
        <div>
            David
            <img width='150' style='border:2px black solid;' src='stims/img/CFD-BM-226-276-N.jpg'>
        </div>
        <div> &nbsp; + &nbsp; </div>
        <div>
            Justin
            <img width='150' style='border:2px black solid;' src='stims/img/CFD-BM-246-192-N.jpg'>
        </div>
        <div class='header-text'> &nbsp; </div>
    </div>
    ","null","2","false","3","stims/img/CFD-BM-246-192-N.jpg","Justin","5","stims/img/CFD-BM-226-276-N.jpg","David","","",""
"","null","fixation","html-keyboard-response","89","455867","0.0-3.0-0.42","14","3","<div style = ""font-size:60px;""> + </div>","null","","","","","","","","","","",""
"","null","learning_trial","html-keyboard-response","90","458374","0.0-3.0-1.42","14","3","
    <div class = 'grid-container'>
        <div class='header-text'> Friends </div>
        <div>
            Jonathan
            <img width='150' style='border:2px black solid;' src='stims/img/CFD-AM-251-124-N.jpg'>
        </div>
        <div> &nbsp; + &nbsp; </div>
        <div>
            Lucas
            <img width='150' style='border:2px black solid;' src='stims/img/CFD-LM-244-068-N.jpg'>
        </div>
        <div class='header-text'> &nbsp; </div>
    </div>
    ","null","2","false","6","stims/img/CFD-LM-244-068-N.jpg","Lucas","7","stims/img/CFD-AM-251-124-N.jpg","Jonathan","","",""
"","null","fixation","html-keyboard-response","91","458880","0.0-3.0-0.43","14","3","<div style = ""font-size:60px;""> + </div>","null","","","","","","","","","","",""
"","null","learning_trial","html-keyboard-response","92","461383","0.0-3.0-1.43","14","3","
    <div class = 'grid-container'>
        <div class='header-text'> Friends </div>
        <div>
            Ella
            <img width='150' style='border:2px black solid;' src='stims/img/CFD-WF-206-147-N.jpg'>
        </div>
        <div> &nbsp; + &nbsp; </div>
        <div>
            Jayden
            <img width='150' style='border:2px black solid;' src='stims/img/CFD-AM-238-269-N.jpg'>
        </div>
        <div class='header-text'> &nbsp; </div>
    </div>
    ","null","2","true","9","stims/img/CFD-WF-206-147-N.jpg","Ella","11","stims/img/CFD-AM-238-269-N.jpg","Jayden","","",""
"","null","fixation","html-keyboard-response","93","461889","0.0-3.0-0.44","14","3","<div style = ""font-size:60px;""> + </div>","null","","","","","","","","","","",""
"","null","learning_trial","html-keyboard-response","94","464396","0.0-3.0-1.44","14","3","
    <div class = 'grid-container'>
        <div class='header-text'> Friends </div>
        <div>
            Mia
            <img width='150' style='border:2px black solid;' src='stims/img/CFD-WF-208-068-N.jpg'>
        </div>
        <div> &nbsp; + &nbsp; </div>
        <div>
            David
            <img width='150' style='border:2px black solid;' src='stims/img/CFD-BM-226-276-N.jpg'>
        </div>
        <div class='header-text'> &nbsp; </div>
    </div>
    ","null","2","true","4","stims/img/CFD-WF-208-068-N.jpg","Mia","5","stims/img/CFD-BM-226-276-N.jpg","David","","",""
"","null","fixation","html-keyboard-response","95","464903","0.0-3.0-0.45","14","3","<div style = ""font-size:60px;""> + </div>","null","","","","","","","","","","",""
"","null","learning_trial","html-keyboard-response","96","467409","0.0-3.0-1.45","14","3","
    <div class = 'grid-container'>
        <div class='header-text'> Friends </div>
        <div>
            Lucas
            <img width='150' style='border:2px black solid;' src='stims/img/CFD-LM-244-068-N.jpg'>
        </div>
        <div> &nbsp; + &nbsp; </div>
        <div>
            Mia
            <img width='150' style='border:2px black solid;' src='stims/img/CFD-WF-208-068-N.jpg'>
        </div>
        <div class='header-text'> &nbsp; </div>
    </div>
    ","null","2","false","4","stims/img/CFD-WF-208-068-N.jpg","Mia","6","stims/img/CFD-LM-244-068-N.jpg","Lucas","","",""
"","null","fixation","html-keyboard-response","97","467916","0.0-3.0-0.46","14","3","<div style = ""font-size:60px;""> + </div>","null","","","","","","","","","","",""
"","null","learning_trial","html-keyboard-response","98","470422","0.0-3.0-1.46","14","3","
    <div class = 'grid-container'>
        <div class='header-text'> Friends </div>
        <div>
            Makayla
            <img width='150' style='border:2px black solid;' src='stims/img/CFD-BF-247-179-N.jpg'>
        </div>
        <div> &nbsp; + &nbsp; </div>
        <div>
            Ashley
            <img width='150' style='border:2px black solid;' src='stims/img/CFD-AF-250-200-N.jpg'>
        </div>
        <div class='header-text'> &nbsp; </div>
    </div>
    ","null","2","false","8","stims/img/CFD-AF-250-200-N.jpg","Ashley","10","stims/img/CFD-BF-247-179-N.jpg","Makayla","","",""
"","null","fixation","html-keyboard-response","99","470929","0.0-3.0-0.47","14","3","<div style = ""font-size:60px;""> + </div>","null","","","","","","","","","","",""
"","null","learning_trial","html-keyboard-response","100","473436","0.0-3.0-1.47","14","3","
    <div class = 'grid-container'>
        <div class='header-text'> Friends </div>
        <div>
            Mia
            <img width='150' style='border:2px black solid;' src='stims/img/CFD-WF-208-068-N.jpg'>
        </div>
        <div> &nbsp; + &nbsp; </div>
        <div>
            Justin
            <img width='150' style='border:2px black solid;' src='stims/img/CFD-BM-246-192-N.jpg'>
        </div>
        <div class='header-text'> &nbsp; </div>
    </div>
    ","null","2","false","3","stims/img/CFD-BM-246-192-N.jpg","Justin","4","stims/img/CFD-WF-208-068-N.jpg","Mia","","",""
"","null","fixation","html-keyboard-response","101","473943","0.0-3.0-0.48","14","3","<div style = ""font-size:60px;""> + </div>","null","","","","","","","","","","",""
"","null","learning_trial","html-keyboard-response","102","476451","0.0-3.0-1.48","14","3","
    <div class = 'grid-container'>
        <div class='header-text'> Friends </div>
        <div>
            Melanie
            <img width='150' style='border:2px black solid;' src='stims/img/CFD-LF-207-198-N.jpg'>
        </div>
        <div> &nbsp; + &nbsp; </div>
        <div>
            Anthony
            <img width='150' style='border:2px black solid;' src='stims/img/CFD-WM-218-074-N.jpg'>
        </div>
        <div class='header-text'> &nbsp; </div>
    </div>
    ","null","2","false","1","stims/img/CFD-WM-218-074-N.jpg","Anthony","2","stims/img/CFD-LF-207-198-N.jpg","Melanie","","",""
"","null","fixation","html-keyboard-response","103","476956","0.0-3.0-0.49","14","3","<div style = ""font-size:60px;""> + </div>","null","","","","","","","","","","",""
"","null","learning_trial","html-keyboard-response","104","479463","0.0-3.0-1.49","14","3","
    <div class = 'grid-container'>
        <div class='header-text'> Friends </div>
        <div>
            Melanie
            <img width='150' style='border:2px black solid;' src='stims/img/CFD-LF-207-198-N.jpg'>
        </div>
        <div> &nbsp; + &nbsp; </div>
        <div>
            Mia
            <img width='150' style='border:2px black solid;' src='stims/img/CFD-WF-208-068-N.jpg'>
        </div>
        <div class='header-text'> &nbsp; </div>
    </div>
    ","null","2","true","2","stims/img/CFD-LF-207-198-N.jpg","Melanie","4","stims/img/CFD-WF-208-068-N.jpg","Mia","","",""
"","null","fixation","html-keyboard-response","105","479969","0.0-3.0-0.50","14","3","<div style = ""font-size:60px;""> + </div>","null","","","","","","","","","","",""
"","null","learning_trial","html-keyboard-response","106","482471","0.0-3.0-1.50","14","3","
    <div class = 'grid-container'>
        <div class='header-text'> Friends </div>
        <div>
            Justin
            <img width='150' style='border:2px black solid;' src='stims/img/CFD-BM-246-192-N.jpg'>
        </div>
        <div> &nbsp; + &nbsp; </div>
        <div>
            Melanie
            <img width='150' style='border:2px black solid;' src='stims/img/CFD-LF-207-198-N.jpg'>
        </div>
        <div class='header-text'> &nbsp; </div>
    </div>
    ","null","2","false","2","stims/img/CFD-LF-207-198-N.jpg","Melanie","3","stims/img/CFD-BM-246-192-N.jpg","Justin","","",""
"","2454","break","html-keyboard-response","107","484926","0.0-3.0-2.50-0.50","14","3","If you'd like to take a break before continuing, 
    please do so now. <p>To continue, please press the spacebar.</p>"," ","","","","","","","","","","",""
"","null","fixation","html-keyboard-response","108","485432","0.0-3.0-0.51","14","3","<div style = ""font-size:60px;""> + </div>","null","","","","","","","","","","",""
"","null","learning_trial","html-keyboard-response","109","487939","0.0-3.0-1.51","14","3","
    <div class = 'grid-container'>
        <div class='header-text'> Friends </div>
        <div>
            Lucas
            <img width='150' style='border:2px black solid;' src='stims/img/CFD-LM-244-068-N.jpg'>
        </div>
        <div> &nbsp; + &nbsp; </div>
        <div>
            Jonathan
            <img width='150' style='border:2px black solid;' src='stims/img/CFD-AM-251-124-N.jpg'>
        </div>
        <div class='header-text'> &nbsp; </div>
    </div>
    ","null","3","true","6","stims/img/CFD-LM-244-068-N.jpg","Lucas","7","stims/img/CFD-AM-251-124-N.jpg","Jonathan","","",""
"","null","fixation","html-keyboard-response","110","488447","0.0-3.0-0.52","14","3","<div style = ""font-size:60px;""> + </div>","null","","","","","","","","","","",""
"","null","learning_trial","html-keyboard-response","111","490951","0.0-3.0-1.52","14","3","
    <div class = 'grid-container'>
        <div class='header-text'> Friends </div>
        <div>
            Ashley
            <img width='150' style='border:2px black solid;' src='stims/img/CFD-AF-250-200-N.jpg'>
        </div>
        <div> &nbsp; + &nbsp; </div>
        <div>
            Makayla
            <img width='150' style='border:2px black solid;' src='stims/img/CFD-BF-247-179-N.jpg'>
        </div>
        <div class='header-text'> &nbsp; </div>
    </div>
    ","null","3","true","8","stims/img/CFD-AF-250-200-N.jpg","Ashley","10","stims/img/CFD-BF-247-179-N.jpg","Makayla","","",""
"","null","fixation","html-keyboard-response","112","491452","0.0-3.0-0.53","14","3","<div style = ""font-size:60px;""> + </div>","null","","","","","","","","","","",""
"","null","learning_trial","html-keyboard-response","113","493959","0.0-3.0-1.53","14","3","
    <div class = 'grid-container'>
        <div class='header-text'> Friends </div>
        <div>
            Anthony
            <img width='150' style='border:2px black solid;' src='stims/img/CFD-WM-218-074-N.jpg'>
        </div>
        <div> &nbsp; + &nbsp; </div>
        <div>
            Melanie
            <img width='150' style='border:2px black solid;' src='stims/img/CFD-LF-207-198-N.jpg'>
        </div>
        <div class='header-text'> &nbsp; </div>
    </div>
    ","null","3","true","1","stims/img/CFD-WM-218-074-N.jpg","Anthony","2","stims/img/CFD-LF-207-198-N.jpg","Melanie","","",""
"","null","fixation","html-keyboard-response","114","494466","0.0-3.0-0.54","14","3","<div style = ""font-size:60px;""> + </div>","null","","","","","","","","","","",""
"","null","learning_trial","html-keyboard-response","115","496972","0.0-3.0-1.54","14","3","
    <div class = 'grid-container'>
        <div class='header-text'> Friends </div>
        <div>
            Mia
            <img width='150' style='border:2px black solid;' src='stims/img/CFD-WF-208-068-N.jpg'>
        </div>
        <div> &nbsp; + &nbsp; </div>
        <div>
            Justin
            <img width='150' style='border:2px black solid;' src='stims/img/CFD-BM-246-192-N.jpg'>
        </div>
        <div class='header-text'> &nbsp; </div>
    </div>
    ","null","3","false","3","stims/img/CFD-BM-246-192-N.jpg","Justin","4","stims/img/CFD-WF-208-068-N.jpg","Mia","","",""
"","null","fixation","html-keyboard-response","116","497478","0.0-3.0-0.55","14","3","<div style = ""font-size:60px;""> + </div>","null","","","","","","","","","","",""
"","null","learning_trial","html-keyboard-response","117","499985","0.0-3.0-1.55","14","3","
    <div class = 'grid-container'>
        <div class='header-text'> Friends </div>
        <div>
            David
            <img width='150' style='border:2px black solid;' src='stims/img/CFD-BM-226-276-N.jpg'>
        </div>
        <div> &nbsp; + &nbsp; </div>
        <div>
            Justin
            <img width='150' style='border:2px black solid;' src='stims/img/CFD-BM-246-192-N.jpg'>
        </div>
        <div class='header-text'> &nbsp; </div>
    </div>
    ","null","3","false","3","stims/img/CFD-BM-246-192-N.jpg","Justin","5","stims/img/CFD-BM-226-276-N.jpg","David","","",""
"","null","fixation","html-keyboard-response","118","500487","0.0-3.0-0.56","14","3","<div style = ""font-size:60px;""> + </div>","null","","","","","","","","","","",""
"","null","learning_trial","html-keyboard-response","119","502994","0.0-3.0-1.56","14","3","
    <div class = 'grid-container'>
        <div class='header-text'> Friends </div>
        <div>
            Mia
            <img width='150' style='border:2px black solid;' src='stims/img/CFD-WF-208-068-N.jpg'>
        </div>
        <div> &nbsp; + &nbsp; </div>
        <div>
            Melanie
            <img width='150' style='border:2px black solid;' src='stims/img/CFD-LF-207-198-N.jpg'>
        </div>
        <div class='header-text'> &nbsp; </div>
    </div>
    ","null","3","false","2","stims/img/CFD-LF-207-198-N.jpg","Melanie","4","stims/img/CFD-WF-208-068-N.jpg","Mia","","",""
"","null","fixation","html-keyboard-response","120","503500","0.0-3.0-0.57","14","3","<div style = ""font-size:60px;""> + </div>","null","","","","","","","","","","",""
"","null","learning_trial","html-keyboard-response","121","506007","0.0-3.0-1.57","14","3","
    <div class = 'grid-container'>
        <div class='header-text'> Friends </div>
        <div>
            Mia
            <img width='150' style='border:2px black solid;' src='stims/img/CFD-WF-208-068-N.jpg'>
        </div>
        <div> &nbsp; + &nbsp; </div>
        <div>
            David
            <img width='150' style='border:2px black solid;' src='stims/img/CFD-BM-226-276-N.jpg'>
        </div>
        <div class='header-text'> &nbsp; </div>
    </div>
    ","null","3","true","4","stims/img/CFD-WF-208-068-N.jpg","Mia","5","stims/img/CFD-BM-226-276-N.jpg","David","","",""
"","null","fixation","html-keyboard-response","122","506513","0.0-3.0-0.58","14","3","<div style = ""font-size:60px;""> + </div>","null","","","","","","","","","","",""
"","null","learning_trial","html-keyboard-response","123","509021","0.0-3.0-1.58","14","3","
    <div class = 'grid-container'>
        <div class='header-text'> Friends </div>
        <div>
            Savannah
            <img width='150' style='border:2px black solid;' src='stims/img/CFD-BF-217-189-N.jpg'>
        </div>
        <div> &nbsp; + &nbsp; </div>
        <div>
            Isabella
            <img width='150' style='border:2px black solid;' src='stims/img/CFD-AF-211-066-N.jpg'>
        </div>
        <div class='header-text'> &nbsp; </div>
    </div>
    ","null","3","true","12","stims/img/CFD-BF-217-189-N.jpg","Savannah","13","stims/img/CFD-AF-211-066-N.jpg","Isabella","","",""
"","null","fixation","html-keyboard-response","124","509522","0.0-3.0-0.59","14","3","<div style = ""font-size:60px;""> + </div>","null","","","","","","","","","","",""
"","null","learning_trial","html-keyboard-response","125","512029","0.0-3.0-1.59","14","3","
    <div class = 'grid-container'>
        <div class='header-text'> Friends </div>
        <div>
            Jayden
            <img width='150' style='border:2px black solid;' src='stims/img/CFD-AM-238-269-N.jpg'>
        </div>
        <div> &nbsp; + &nbsp; </div>
        <div>
            Savannah
            <img width='150' style='border:2px black solid;' src='stims/img/CFD-BF-217-189-N.jpg'>
        </div>
        <div class='header-text'> &nbsp; </div>
    </div>
    ","null","3","true","11","stims/img/CFD-AM-238-269-N.jpg","Jayden","12","stims/img/CFD-BF-217-189-N.jpg","Savannah","","",""
"","null","fixation","html-keyboard-response","126","512535","0.0-3.0-0.60","14","3","<div style = ""font-size:60px;""> + </div>","null","","","","","","","","","","",""
"","null","learning_trial","html-keyboard-response","127","515042","0.0-3.0-1.60","14","3","
    <div class = 'grid-container'>
        <div class='header-text'> Friends </div>
        <div>
            Justin
            <img width='150' style='border:2px black solid;' src='stims/img/CFD-BM-246-192-N.jpg'>
        </div>
        <div> &nbsp; + &nbsp; </div>
        <div>
            Melanie
            <img width='150' style='border:2px black solid;' src='stims/img/CFD-LF-207-198-N.jpg'>
        </div>
        <div class='header-text'> &nbsp; </div>
    </div>
    ","null","3","false","2","stims/img/CFD-LF-207-198-N.jpg","Melanie","3","stims/img/CFD-BM-246-192-N.jpg","Justin","","",""
"","null","fixation","html-keyboard-response","128","515544","0.0-3.0-0.61","14","3","<div style = ""font-size:60px;""> + </div>","null","","","","","","","","","","",""
"","null","learning_trial","html-keyboard-response","129","518050","0.0-3.0-1.61","14","3","
    <div class = 'grid-container'>
        <div class='header-text'> Friends </div>
        <div>
            Anthony
            <img width='150' style='border:2px black solid;' src='stims/img/CFD-WM-218-074-N.jpg'>
        </div>
        <div> &nbsp; + &nbsp; </div>
        <div>
            Ashley
            <img width='150' style='border:2px black solid;' src='stims/img/CFD-AF-250-200-N.jpg'>
        </div>
        <div class='header-text'> &nbsp; </div>
    </div>
    ","null","3","true","1","stims/img/CFD-WM-218-074-N.jpg","Anthony","8","stims/img/CFD-AF-250-200-N.jpg","Ashley","","",""
"","null","fixation","html-keyboard-response","130","518554","0.0-3.0-0.62","14","3","<div style = ""font-size:60px;""> + </div>","null","","","","","","","","","","",""
"","null","learning_trial","html-keyboard-response","131","521061","0.0-3.0-1.62","14","3","
    <div class = 'grid-container'>
        <div class='header-text'> Friends </div>
        <div>
            Isabella
            <img width='150' style='border:2px black solid;' src='stims/img/CFD-AF-211-066-N.jpg'>
        </div>
        <div> &nbsp; + &nbsp; </div>
        <div>
            Jayden
            <img width='150' style='border:2px black solid;' src='stims/img/CFD-AM-238-269-N.jpg'>
        </div>
        <div class='header-text'> &nbsp; </div>
    </div>
    ","null","3","false","11","stims/img/CFD-AM-238-269-N.jpg","Jayden","13","stims/img/CFD-AF-211-066-N.jpg","Isabella","","",""
"","null","fixation","html-keyboard-response","132","521567","0.0-3.0-0.63","14","3","<div style = ""font-size:60px;""> + </div>","null","","","","","","","","","","",""
"","null","learning_trial","html-keyboard-response","133","524074","0.0-3.0-1.63","14","3","
    <div class = 'grid-container'>
        <div class='header-text'> Friends </div>
        <div>
            Ashley
            <img width='150' style='border:2px black solid;' src='stims/img/CFD-AF-250-200-N.jpg'>
        </div>
        <div> &nbsp; + &nbsp; </div>
        <div>
            Ella
            <img width='150' style='border:2px black solid;' src='stims/img/CFD-WF-206-147-N.jpg'>
        </div>
        <div class='header-text'> &nbsp; </div>
    </div>
    ","null","3","true","8","stims/img/CFD-AF-250-200-N.jpg","Ashley","9","stims/img/CFD-WF-206-147-N.jpg","Ella","","",""
"","null","fixation","html-keyboard-response","134","524580","0.0-3.0-0.64","14","3","<div style = ""font-size:60px;""> + </div>","null","","","","","","","","","","",""
"","null","learning_trial","html-keyboard-response","135","527086","0.0-3.0-1.64","14","3","
    <div class = 'grid-container'>
        <div class='header-text'> Friends </div>
        <div>
            Savannah
            <img width='150' style='border:2px black solid;' src='stims/img/CFD-BF-217-189-N.jpg'>
        </div>
        <div> &nbsp; + &nbsp; </div>
        <div>
            Makayla
            <img width='150' style='border:2px black solid;' src='stims/img/CFD-BF-247-179-N.jpg'>
        </div>
        <div class='header-text'> &nbsp; </div>
    </div>
    ","null","3","false","10","stims/img/CFD-BF-247-179-N.jpg","Makayla","12","stims/img/CFD-BF-217-189-N.jpg","Savannah","","",""
"","null","fixation","html-keyboard-response","136","527591","0.0-3.0-0.65","14","3","<div style = ""font-size:60px;""> + </div>","null","","","","","","","","","","",""
"","null","learning_trial","html-keyboard-response","137","530093","0.0-3.0-1.65","14","3","
    <div class = 'grid-container'>
        <div class='header-text'> Friends </div>
        <div>
            Mia
            <img width='150' style='border:2px black solid;' src='stims/img/CFD-WF-208-068-N.jpg'>
        </div>
        <div> &nbsp; + &nbsp; </div>
        <div>
            Lucas
            <img width='150' style='border:2px black solid;' src='stims/img/CFD-LM-244-068-N.jpg'>
        </div>
        <div class='header-text'> &nbsp; </div>
    </div>
    ","null","3","true","4","stims/img/CFD-WF-208-068-N.jpg","Mia","6","stims/img/CFD-LM-244-068-N.jpg","Lucas","","",""
"","null","fixation","html-keyboard-response","138","530599","0.0-3.0-0.66","14","3","<div style = ""font-size:60px;""> + </div>","null","","","","","","","","","","",""
"","null","learning_trial","html-keyboard-response","139","533106","0.0-3.0-1.66","14","3","
    <div class = 'grid-container'>
        <div class='header-text'> Friends </div>
        <div>
            David
            <img width='150' style='border:2px black solid;' src='stims/img/CFD-BM-226-276-N.jpg'>
        </div>
        <div> &nbsp; + &nbsp; </div>
        <div>
            Jonathan
            <img width='150' style='border:2px black solid;' src='stims/img/CFD-AM-251-124-N.jpg'>
        </div>
        <div class='header-text'> &nbsp; </div>
    </div>
    ","null","3","true","5","stims/img/CFD-BM-226-276-N.jpg","David","7","stims/img/CFD-AM-251-124-N.jpg","Jonathan","","",""
"","null","fixation","html-keyboard-response","140","533612","0.0-3.0-0.67","14","3","<div style = ""font-size:60px;""> + </div>","null","","","","","","","","","","",""
"","null","learning_trial","html-keyboard-response","141","536114","0.0-3.0-1.67","14","3","
    <div class = 'grid-container'>
        <div class='header-text'> Friends </div>
        <div>
            Jayden
            <img width='150' style='border:2px black solid;' src='stims/img/CFD-AM-238-269-N.jpg'>
        </div>
        <div> &nbsp; + &nbsp; </div>
        <div>
            Ella
            <img width='150' style='border:2px black solid;' src='stims/img/CFD-WF-206-147-N.jpg'>
        </div>
        <div class='header-text'> &nbsp; </div>
    </div>
    ","null","3","false","9","stims/img/CFD-WF-206-147-N.jpg","Ella","11","stims/img/CFD-AM-238-269-N.jpg","Jayden","","",""
"","1791","break","html-keyboard-response","142","537907","0.0-3.0-2.67-0.67","14","3","If you'd like to take a break before continuing, 
    please do so now. <p>To continue, please press the spacebar.</p>"," ","","","","","","","","","","",""
"","null","fixation","html-keyboard-response","143","538413","0.0-3.0-0.68","14","3","<div style = ""font-size:60px;""> + </div>","null","","","","","","","","","","",""
"","null","learning_trial","html-keyboard-response","144","540920","0.0-3.0-1.68","14","3","
    <div class = 'grid-container'>
        <div class='header-text'> Friends </div>
        <div>
            Isabella
            <img width='150' style='border:2px black solid;' src='stims/img/CFD-AF-211-066-N.jpg'>
        </div>
        <div> &nbsp; + &nbsp; </div>
        <div>
            Savannah
            <img width='150' style='border:2px black solid;' src='stims/img/CFD-BF-217-189-N.jpg'>
        </div>
        <div class='header-text'> &nbsp; </div>
    </div>
    ","null","4","false","12","stims/img/CFD-BF-217-189-N.jpg","Savannah","13","stims/img/CFD-AF-211-066-N.jpg","Isabella","","",""
"","null","fixation","html-keyboard-response","145","541427","0.0-3.0-0.69","14","3","<div style = ""font-size:60px;""> + </div>","null","","","","","","","","","","",""
"","null","learning_trial","html-keyboard-response","146","543933","0.0-3.0-1.69","14","3","
    <div class = 'grid-container'>
        <div class='header-text'> Friends </div>
        <div>
            Jayden
            <img width='150' style='border:2px black solid;' src='stims/img/CFD-AM-238-269-N.jpg'>
        </div>
        <div> &nbsp; + &nbsp; </div>
        <div>
            Isabella
            <img width='150' style='border:2px black solid;' src='stims/img/CFD-AF-211-066-N.jpg'>
        </div>
        <div class='header-text'> &nbsp; </div>
    </div>
    ","null","4","true","11","stims/img/CFD-AM-238-269-N.jpg","Jayden","13","stims/img/CFD-AF-211-066-N.jpg","Isabella","","",""
"","null","fixation","html-keyboard-response","147","544440","0.0-3.0-0.70","14","3","<div style = ""font-size:60px;""> + </div>","null","","","","","","","","","","",""
"","null","learning_trial","html-keyboard-response","148","546946","0.0-3.0-1.70","14","3","
    <div class = 'grid-container'>
        <div class='header-text'> Friends </div>
        <div>
            Jayden
            <img width='150' style='border:2px black solid;' src='stims/img/CFD-AM-238-269-N.jpg'>
        </div>
        <div> &nbsp; + &nbsp; </div>
        <div>
            Ella
            <img width='150' style='border:2px black solid;' src='stims/img/CFD-WF-206-147-N.jpg'>
        </div>
        <div class='header-text'> &nbsp; </div>
    </div>
    ","null","4","false","9","stims/img/CFD-WF-206-147-N.jpg","Ella","11","stims/img/CFD-AM-238-269-N.jpg","Jayden","","",""
"","null","fixation","html-keyboard-response","149","547452","0.0-3.0-0.71","14","3","<div style = ""font-size:60px;""> + </div>","null","","","","","","","","","","",""
"","null","learning_trial","html-keyboard-response","150","549959","0.0-3.0-1.71","14","3","
    <div class = 'grid-container'>
        <div class='header-text'> Friends </div>
        <div>
            Lucas
            <img width='150' style='border:2px black solid;' src='stims/img/CFD-LM-244-068-N.jpg'>
        </div>
        <div> &nbsp; + &nbsp; </div>
        <div>
            Mia
            <img width='150' style='border:2px black solid;' src='stims/img/CFD-WF-208-068-N.jpg'>
        </div>
        <div class='header-text'> &nbsp; </div>
    </div>
    ","null","4","false","4","stims/img/CFD-WF-208-068-N.jpg","Mia","6","stims/img/CFD-LM-244-068-N.jpg","Lucas","","",""
"","null","fixation","html-keyboard-response","151","550465","0.0-3.0-0.72","14","3","<div style = ""font-size:60px;""> + </div>","null","","","","","","","","","","",""
"","null","learning_trial","html-keyboard-response","152","552973","0.0-3.0-1.72","14","3","
    <div class = 'grid-container'>
        <div class='header-text'> Friends </div>
        <div>
            Anthony
            <img width='150' style='border:2px black solid;' src='stims/img/CFD-WM-218-074-N.jpg'>
        </div>
        <div> &nbsp; + &nbsp; </div>
        <div>
            Ashley
            <img width='150' style='border:2px black solid;' src='stims/img/CFD-AF-250-200-N.jpg'>
        </div>
        <div class='header-text'> &nbsp; </div>
    </div>
    ","null","4","true","1","stims/img/CFD-WM-218-074-N.jpg","Anthony","8","stims/img/CFD-AF-250-200-N.jpg","Ashley","","",""
"","null","fixation","html-keyboard-response","153","553479","0.0-3.0-0.73","14","3","<div style = ""font-size:60px;""> + </div>","null","","","","","","","","","","",""
"","null","learning_trial","html-keyboard-response","154","555986","0.0-3.0-1.73","14","3","
    <div class = 'grid-container'>
        <div class='header-text'> Friends </div>
        <div>
            Ashley
            <img width='150' style='border:2px black solid;' src='stims/img/CFD-AF-250-200-N.jpg'>
        </div>
        <div> &nbsp; + &nbsp; </div>
        <div>
            Makayla
            <img width='150' style='border:2px black solid;' src='stims/img/CFD-BF-247-179-N.jpg'>
        </div>
        <div class='header-text'> &nbsp; </div>
    </div>
    ","null","4","true","8","stims/img/CFD-AF-250-200-N.jpg","Ashley","10","stims/img/CFD-BF-247-179-N.jpg","Makayla","","",""
"","null","fixation","html-keyboard-response","155","556492","0.0-3.0-0.74","14","3","<div style = ""font-size:60px;""> + </div>","null","","","","","","","","","","",""
"","null","learning_trial","html-keyboard-response","156","558999","0.0-3.0-1.74","14","3","
    <div class = 'grid-container'>
        <div class='header-text'> Friends </div>
        <div>
            Jonathan
            <img width='150' style='border:2px black solid;' src='stims/img/CFD-AM-251-124-N.jpg'>
        </div>
        <div> &nbsp; + &nbsp; </div>
        <div>
            David
            <img width='150' style='border:2px black solid;' src='stims/img/CFD-BM-226-276-N.jpg'>
        </div>
        <div class='header-text'> &nbsp; </div>
    </div>
    ","null","4","false","5","stims/img/CFD-BM-226-276-N.jpg","David","7","stims/img/CFD-AM-251-124-N.jpg","Jonathan","","",""
"","null","fixation","html-keyboard-response","157","559505","0.0-3.0-0.75","14","3","<div style = ""font-size:60px;""> + </div>","null","","","","","","","","","","",""
"","null","learning_trial","html-keyboard-response","158","562012","0.0-3.0-1.75","14","3","
    <div class = 'grid-container'>
        <div class='header-text'> Friends </div>
        <div>
            Savannah
            <img width='150' style='border:2px black solid;' src='stims/img/CFD-BF-217-189-N.jpg'>
        </div>
        <div> &nbsp; + &nbsp; </div>
        <div>
            Makayla
            <img width='150' style='border:2px black solid;' src='stims/img/CFD-BF-247-179-N.jpg'>
        </div>
        <div class='header-text'> &nbsp; </div>
    </div>
    ","null","4","false","10","stims/img/CFD-BF-247-179-N.jpg","Makayla","12","stims/img/CFD-BF-217-189-N.jpg","Savannah","","",""
"","null","fixation","html-keyboard-response","159","562518","0.0-3.0-0.76","14","3","<div style = ""font-size:60px;""> + </div>","null","","","","","","","","","","",""
"","null","learning_trial","html-keyboard-response","160","565021","0.0-3.0-1.76","14","3","
    <div class = 'grid-container'>
        <div class='header-text'> Friends </div>
        <div>
            Ella
            <img width='150' style='border:2px black solid;' src='stims/img/CFD-WF-206-147-N.jpg'>
        </div>
        <div> &nbsp; + &nbsp; </div>
        <div>
            Ashley
            <img width='150' style='border:2px black solid;' src='stims/img/CFD-AF-250-200-N.jpg'>
        </div>
        <div class='header-text'> &nbsp; </div>
    </div>
    ","null","4","false","8","stims/img/CFD-AF-250-200-N.jpg","Ashley","9","stims/img/CFD-WF-206-147-N.jpg","Ella","","",""
"","null","fixation","html-keyboard-response","161","565527","0.0-3.0-0.77","14","3","<div style = ""font-size:60px;""> + </div>","null","","","","","","","","","","",""
"","null","learning_trial","html-keyboard-response","162","568034","0.0-3.0-1.77","14","3","
    <div class = 'grid-container'>
        <div class='header-text'> Friends </div>
        <div>
            Melanie
            <img width='150' style='border:2px black solid;' src='stims/img/CFD-LF-207-198-N.jpg'>
        </div>
        <div> &nbsp; + &nbsp; </div>
        <div>
            Justin
            <img width='150' style='border:2px black solid;' src='stims/img/CFD-BM-246-192-N.jpg'>
        </div>
        <div class='header-text'> &nbsp; </div>
    </div>
    ","null","4","true","2","stims/img/CFD-LF-207-198-N.jpg","Melanie","3","stims/img/CFD-BM-246-192-N.jpg","Justin","","",""
"","null","fixation","html-keyboard-response","163","568540","0.0-3.0-0.78","14","3","<div style = ""font-size:60px;""> + </div>","null","","","","","","","","","","",""
"","null","learning_trial","html-keyboard-response","164","571046","0.0-3.0-1.78","14","3","
    <div class = 'grid-container'>
        <div class='header-text'> Friends </div>
        <div>
            Mia
            <img width='150' style='border:2px black solid;' src='stims/img/CFD-WF-208-068-N.jpg'>
        </div>
        <div> &nbsp; + &nbsp; </div>
        <div>
            David
            <img width='150' style='border:2px black solid;' src='stims/img/CFD-BM-226-276-N.jpg'>
        </div>
        <div class='header-text'> &nbsp; </div>
    </div>
    ","null","4","true","4","stims/img/CFD-WF-208-068-N.jpg","Mia","5","stims/img/CFD-BM-226-276-N.jpg","David","","",""
"","null","fixation","html-keyboard-response","165","571553","0.0-3.0-0.79","14","3","<div style = ""font-size:60px;""> + </div>","null","","","","","","","","","","",""
"","null","learning_trial","html-keyboard-response","166","574059","0.0-3.0-1.79","14","3","
    <div class = 'grid-container'>
        <div class='header-text'> Friends </div>
        <div>
            Mia
            <img width='150' style='border:2px black solid;' src='stims/img/CFD-WF-208-068-N.jpg'>
        </div>
        <div> &nbsp; + &nbsp; </div>
        <div>
            Justin
            <img width='150' style='border:2px black solid;' src='stims/img/CFD-BM-246-192-N.jpg'>
        </div>
        <div class='header-text'> &nbsp; </div>
    </div>
    ","null","4","false","3","stims/img/CFD-BM-246-192-N.jpg","Justin","4","stims/img/CFD-WF-208-068-N.jpg","Mia","","",""
"","null","fixation","html-keyboard-response","167","574566","0.0-3.0-0.80","14","3","<div style = ""font-size:60px;""> + </div>","null","","","","","","","","","","",""
"","null","learning_trial","html-keyboard-response","168","577073","0.0-3.0-1.80","14","3","
    <div class = 'grid-container'>
        <div class='header-text'> Friends </div>
        <div>
            David
            <img width='150' style='border:2px black solid;' src='stims/img/CFD-BM-226-276-N.jpg'>
        </div>
        <div> &nbsp; + &nbsp; </div>
        <div>
            Justin
            <img width='150' style='border:2px black solid;' src='stims/img/CFD-BM-246-192-N.jpg'>
        </div>
        <div class='header-text'> &nbsp; </div>
    </div>
    ","null","4","false","3","stims/img/CFD-BM-246-192-N.jpg","Justin","5","stims/img/CFD-BM-226-276-N.jpg","David","","",""
"","null","fixation","html-keyboard-response","169","577579","0.0-3.0-0.81","14","3","<div style = ""font-size:60px;""> + </div>","null","","","","","","","","","","",""
"","null","learning_trial","html-keyboard-response","170","580086","0.0-3.0-1.81","14","3","
    <div class = 'grid-container'>
        <div class='header-text'> Friends </div>
        <div>
            Jayden
            <img width='150' style='border:2px black solid;' src='stims/img/CFD-AM-238-269-N.jpg'>
        </div>
        <div> &nbsp; + &nbsp; </div>
        <div>
            Savannah
            <img width='150' style='border:2px black solid;' src='stims/img/CFD-BF-217-189-N.jpg'>
        </div>
        <div class='header-text'> &nbsp; </div>
    </div>
    ","null","4","true","11","stims/img/CFD-AM-238-269-N.jpg","Jayden","12","stims/img/CFD-BF-217-189-N.jpg","Savannah","","",""
"","null","fixation","html-keyboard-response","171","580593","0.0-3.0-0.82","14","3","<div style = ""font-size:60px;""> + </div>","null","","","","","","","","","","",""
"","null","learning_trial","html-keyboard-response","172","583100","0.0-3.0-1.82","14","3","
    <div class = 'grid-container'>
        <div class='header-text'> Friends </div>
        <div>
            Melanie
            <img width='150' style='border:2px black solid;' src='stims/img/CFD-LF-207-198-N.jpg'>
        </div>
        <div> &nbsp; + &nbsp; </div>
        <div>
            Anthony
            <img width='150' style='border:2px black solid;' src='stims/img/CFD-WM-218-074-N.jpg'>
        </div>
        <div class='header-text'> &nbsp; </div>
    </div>
    ","null","4","false","1","stims/img/CFD-WM-218-074-N.jpg","Anthony","2","stims/img/CFD-LF-207-198-N.jpg","Melanie","","",""
"","null","fixation","html-keyboard-response","173","583606","0.0-3.0-0.83","14","3","<div style = ""font-size:60px;""> + </div>","null","","","","","","","","","","",""
"","null","learning_trial","html-keyboard-response","174","586113","0.0-3.0-1.83","14","3","
    <div class = 'grid-container'>
        <div class='header-text'> Friends </div>
        <div>
            Mia
            <img width='150' style='border:2px black solid;' src='stims/img/CFD-WF-208-068-N.jpg'>
        </div>
        <div> &nbsp; + &nbsp; </div>
        <div>
            Melanie
            <img width='150' style='border:2px black solid;' src='stims/img/CFD-LF-207-198-N.jpg'>
        </div>
        <div class='header-text'> &nbsp; </div>
    </div>
    ","null","4","false","2","stims/img/CFD-LF-207-198-N.jpg","Melanie","4","stims/img/CFD-WF-208-068-N.jpg","Mia","","",""
"","null","fixation","html-keyboard-response","175","586619","0.0-3.0-0.84","14","3","<div style = ""font-size:60px;""> + </div>","null","","","","","","","","","","",""
"","null","learning_trial","html-keyboard-response","176","589127","0.0-3.0-1.84","14","3","
    <div class = 'grid-container'>
        <div class='header-text'> Friends </div>
        <div>
            Lucas
            <img width='150' style='border:2px black solid;' src='stims/img/CFD-LM-244-068-N.jpg'>
        </div>
        <div> &nbsp; + &nbsp; </div>
        <div>
            Jonathan
            <img width='150' style='border:2px black solid;' src='stims/img/CFD-AM-251-124-N.jpg'>
        </div>
        <div class='header-text'> &nbsp; </div>
    </div>
    ","null","4","true","6","stims/img/CFD-LM-244-068-N.jpg","Lucas","7","stims/img/CFD-AM-251-124-N.jpg","Jonathan","","",""
"","2320","break","html-keyboard-response","177","591448","0.0-3.0-2.84-0.84","14","3","If you'd like to take a break before continuing, 
    please do so now. <p>To continue, please press the spacebar.</p>"," ","","","","","","","","","","",""
"","null","fixation","html-keyboard-response","178","591953","0.0-3.0-0.85","14","3","<div style = ""font-size:60px;""> + </div>","null","","","","","","","","","","",""
"","null","learning_trial","html-keyboard-response","179","594456","0.0-3.0-1.85","14","3","
    <div class = 'grid-container'>
        <div class='header-text'> Friends </div>
        <div>
            Savannah
            <img width='150' style='border:2px black solid;' src='stims/img/CFD-BF-217-189-N.jpg'>
        </div>
        <div> &nbsp; + &nbsp; </div>
        <div>
            Makayla
            <img width='150' style='border:2px black solid;' src='stims/img/CFD-BF-247-179-N.jpg'>
        </div>
        <div class='header-text'> &nbsp; </div>
    </div>
    ","null","5","false","10","stims/img/CFD-BF-247-179-N.jpg","Makayla","12","stims/img/CFD-BF-217-189-N.jpg","Savannah","","",""
"","null","fixation","html-keyboard-response","180","594962","0.0-3.0-0.86","14","3","<div style = ""font-size:60px;""> + </div>","null","","","","","","","","","","",""
"","null","learning_trial","html-keyboard-response","181","597468","0.0-3.0-1.86","14","3","
    <div class = 'grid-container'>
        <div class='header-text'> Friends </div>
        <div>
            Ashley
            <img width='150' style='border:2px black solid;' src='stims/img/CFD-AF-250-200-N.jpg'>
        </div>
        <div> &nbsp; + &nbsp; </div>
        <div>
            Anthony
            <img width='150' style='border:2px black solid;' src='stims/img/CFD-WM-218-074-N.jpg'>
        </div>
        <div class='header-text'> &nbsp; </div>
    </div>
    ","null","5","false","1","stims/img/CFD-WM-218-074-N.jpg","Anthony","8","stims/img/CFD-AF-250-200-N.jpg","Ashley","","",""
"","null","fixation","html-keyboard-response","182","597973","0.0-3.0-0.87","14","3","<div style = ""font-size:60px;""> + </div>","null","","","","","","","","","","",""
"","null","learning_trial","html-keyboard-response","183","600480","0.0-3.0-1.87","14","3","
    <div class = 'grid-container'>
        <div class='header-text'> Friends </div>
        <div>
            Makayla
            <img width='150' style='border:2px black solid;' src='stims/img/CFD-BF-247-179-N.jpg'>
        </div>
        <div> &nbsp; + &nbsp; </div>
        <div>
            Ashley
            <img width='150' style='border:2px black solid;' src='stims/img/CFD-AF-250-200-N.jpg'>
        </div>
        <div class='header-text'> &nbsp; </div>
    </div>
    ","null","5","false","8","stims/img/CFD-AF-250-200-N.jpg","Ashley","10","stims/img/CFD-BF-247-179-N.jpg","Makayla","","",""
"","null","fixation","html-keyboard-response","184","600986","0.0-3.0-0.88","14","3","<div style = ""font-size:60px;""> + </div>","null","","","","","","","","","","",""
"","null","learning_trial","html-keyboard-response","185","603493","0.0-3.0-1.88","14","3","
    <div class = 'grid-container'>
        <div class='header-text'> Friends </div>
        <div>
            Jayden
            <img width='150' style='border:2px black solid;' src='stims/img/CFD-AM-238-269-N.jpg'>
        </div>
        <div> &nbsp; + &nbsp; </div>
        <div>
            Savannah
            <img width='150' style='border:2px black solid;' src='stims/img/CFD-BF-217-189-N.jpg'>
        </div>
        <div class='header-text'> &nbsp; </div>
    </div>
    ","null","5","true","11","stims/img/CFD-AM-238-269-N.jpg","Jayden","12","stims/img/CFD-BF-217-189-N.jpg","Savannah","","",""
"","null","fixation","html-keyboard-response","186","603995","0.0-3.0-0.89","14","3","<div style = ""font-size:60px;""> + </div>","null","","","","","","","","","","",""
"","null","learning_trial","html-keyboard-response","187","606503","0.0-3.0-1.89","14","3","
    <div class = 'grid-container'>
        <div class='header-text'> Friends </div>
        <div>
            Mia
            <img width='150' style='border:2px black solid;' src='stims/img/CFD-WF-208-068-N.jpg'>
        </div>
        <div> &nbsp; + &nbsp; </div>
        <div>
            David
            <img width='150' style='border:2px black solid;' src='stims/img/CFD-BM-226-276-N.jpg'>
        </div>
        <div class='header-text'> &nbsp; </div>
    </div>
    ","null","5","true","4","stims/img/CFD-WF-208-068-N.jpg","Mia","5","stims/img/CFD-BM-226-276-N.jpg","David","","",""
"","null","fixation","html-keyboard-response","188","607008","0.0-3.0-0.90","14","3","<div style = ""font-size:60px;""> + </div>","null","","","","","","","","","","",""
"","null","learning_trial","html-keyboard-response","189","609511","0.0-3.0-1.90","14","3","
    <div class = 'grid-container'>
        <div class='header-text'> Friends </div>
        <div>
            Mia
            <img width='150' style='border:2px black solid;' src='stims/img/CFD-WF-208-068-N.jpg'>
        </div>
        <div> &nbsp; + &nbsp; </div>
        <div>
            Melanie
            <img width='150' style='border:2px black solid;' src='stims/img/CFD-LF-207-198-N.jpg'>
        </div>
        <div class='header-text'> &nbsp; </div>
    </div>
    ","null","5","false","2","stims/img/CFD-LF-207-198-N.jpg","Melanie","4","stims/img/CFD-WF-208-068-N.jpg","Mia","","",""
"","null","fixation","html-keyboard-response","190","610018","0.0-3.0-0.91","14","3","<div style = ""font-size:60px;""> + </div>","null","","","","","","","","","","",""
"","null","learning_trial","html-keyboard-response","191","612526","0.0-3.0-1.91","14","3","
    <div class = 'grid-container'>
        <div class='header-text'> Friends </div>
        <div>
            Lucas
            <img width='150' style='border:2px black solid;' src='stims/img/CFD-LM-244-068-N.jpg'>
        </div>
        <div> &nbsp; + &nbsp; </div>
        <div>
            Mia
            <img width='150' style='border:2px black solid;' src='stims/img/CFD-WF-208-068-N.jpg'>
        </div>
        <div class='header-text'> &nbsp; </div>
    </div>
    ","null","5","false","4","stims/img/CFD-WF-208-068-N.jpg","Mia","6","stims/img/CFD-LM-244-068-N.jpg","Lucas","","",""
"","null","fixation","html-keyboard-response","192","613032","0.0-3.0-0.92","14","3","<div style = ""font-size:60px;""> + </div>","null","","","","","","","","","","",""
"","null","learning_trial","html-keyboard-response","193","615539","0.0-3.0-1.92","14","3","
    <div class = 'grid-container'>
        <div class='header-text'> Friends </div>
        <div>
            Savannah
            <img width='150' style='border:2px black solid;' src='stims/img/CFD-BF-217-189-N.jpg'>
        </div>
        <div> &nbsp; + &nbsp; </div>
        <div>
            Isabella
            <img width='150' style='border:2px black solid;' src='stims/img/CFD-AF-211-066-N.jpg'>
        </div>
        <div class='header-text'> &nbsp; </div>
    </div>
    ","null","5","true","12","stims/img/CFD-BF-217-189-N.jpg","Savannah","13","stims/img/CFD-AF-211-066-N.jpg","Isabella","","",""
"","null","fixation","html-keyboard-response","194","616045","0.0-3.0-0.93","14","3","<div style = ""font-size:60px;""> + </div>","null","","","","","","","","","","",""
"","null","learning_trial","html-keyboard-response","195","618552","0.0-3.0-1.93","14","3","
    <div class = 'grid-container'>
        <div class='header-text'> Friends </div>
        <div>
            Melanie
            <img width='150' style='border:2px black solid;' src='stims/img/CFD-LF-207-198-N.jpg'>
        </div>
        <div> &nbsp; + &nbsp; </div>
        <div>
            Anthony
            <img width='150' style='border:2px black solid;' src='stims/img/CFD-WM-218-074-N.jpg'>
        </div>
        <div class='header-text'> &nbsp; </div>
    </div>
    ","null","5","false","1","stims/img/CFD-WM-218-074-N.jpg","Anthony","2","stims/img/CFD-LF-207-198-N.jpg","Melanie","","",""
"","null","fixation","html-keyboard-response","196","619058","0.0-3.0-0.94","14","3","<div style = ""font-size:60px;""> + </div>","null","","","","","","","","","","",""
"","null","learning_trial","html-keyboard-response","197","621564","0.0-3.0-1.94","14","3","
    <div class = 'grid-container'>
        <div class='header-text'> Friends </div>
        <div>
            David
            <img width='150' style='border:2px black solid;' src='stims/img/CFD-BM-226-276-N.jpg'>
        </div>
        <div> &nbsp; + &nbsp; </div>
        <div>
            Jonathan
            <img width='150' style='border:2px black solid;' src='stims/img/CFD-AM-251-124-N.jpg'>
        </div>
        <div class='header-text'> &nbsp; </div>
    </div>
    ","null","5","true","5","stims/img/CFD-BM-226-276-N.jpg","David","7","stims/img/CFD-AM-251-124-N.jpg","Jonathan","","",""
"","null","fixation","html-keyboard-response","198","622068","0.0-3.0-0.95","14","3","<div style = ""font-size:60px;""> + </div>","null","","","","","","","","","","",""
"","null","learning_trial","html-keyboard-response","199","624572","0.0-3.0-1.95","14","3","
    <div class = 'grid-container'>
        <div class='header-text'> Friends </div>
        <div>
            Ella
            <img width='150' style='border:2px black solid;' src='stims/img/CFD-WF-206-147-N.jpg'>
        </div>
        <div> &nbsp; + &nbsp; </div>
        <div>
            Jayden
            <img width='150' style='border:2px black solid;' src='stims/img/CFD-AM-238-269-N.jpg'>
        </div>
        <div class='header-text'> &nbsp; </div>
    </div>
    ","null","5","true","9","stims/img/CFD-WF-206-147-N.jpg","Ella","11","stims/img/CFD-AM-238-269-N.jpg","Jayden","","",""
"","null","fixation","html-keyboard-response","200","625078","0.0-3.0-0.96","14","3","<div style = ""font-size:60px;""> + </div>","null","","","","","","","","","","",""
"","null","learning_trial","html-keyboard-response","201","627580","0.0-3.0-1.96","14","3","
    <div class = 'grid-container'>
        <div class='header-text'> Friends </div>
        <div>
            Isabella
            <img width='150' style='border:2px black solid;' src='stims/img/CFD-AF-211-066-N.jpg'>
        </div>
        <div> &nbsp; + &nbsp; </div>
        <div>
            Jayden
            <img width='150' style='border:2px black solid;' src='stims/img/CFD-AM-238-269-N.jpg'>
        </div>
        <div class='header-text'> &nbsp; </div>
    </div>
    ","null","5","false","11","stims/img/CFD-AM-238-269-N.jpg","Jayden","13","stims/img/CFD-AF-211-066-N.jpg","Isabella","","",""
"","null","fixation","html-keyboard-response","202","628086","0.0-3.0-0.97","14","3","<div style = ""font-size:60px;""> + </div>","null","","","","","","","","","","",""
"","null","learning_trial","html-keyboard-response","203","630593","0.0-3.0-1.97","14","3","
    <div class = 'grid-container'>
        <div class='header-text'> Friends </div>
        <div>
            Justin
            <img width='150' style='border:2px black solid;' src='stims/img/CFD-BM-246-192-N.jpg'>
        </div>
        <div> &nbsp; + &nbsp; </div>
        <div>
            Mia
            <img width='150' style='border:2px black solid;' src='stims/img/CFD-WF-208-068-N.jpg'>
        </div>
        <div class='header-text'> &nbsp; </div>
    </div>
    ","null","5","true","3","stims/img/CFD-BM-246-192-N.jpg","Justin","4","stims/img/CFD-WF-208-068-N.jpg","Mia","","",""
"","null","fixation","html-keyboard-response","204","631099","0.0-3.0-0.98","14","3","<div style = ""font-size:60px;""> + </div>","null","","","","","","","","","","",""
"","null","learning_trial","html-keyboard-response","205","633607","0.0-3.0-1.98","14","3","
    <div class = 'grid-container'>
        <div class='header-text'> Friends </div>
        <div>
            Ella
            <img width='150' style='border:2px black solid;' src='stims/img/CFD-WF-206-147-N.jpg'>
        </div>
        <div> &nbsp; + &nbsp; </div>
        <div>
            Ashley
            <img width='150' style='border:2px black solid;' src='stims/img/CFD-AF-250-200-N.jpg'>
        </div>
        <div class='header-text'> &nbsp; </div>
    </div>
    ","null","5","false","8","stims/img/CFD-AF-250-200-N.jpg","Ashley","9","stims/img/CFD-WF-206-147-N.jpg","Ella","","",""
"","null","fixation","html-keyboard-response","206","634113","0.0-3.0-0.99","14","3","<div style = ""font-size:60px;""> + </div>","null","","","","","","","","","","",""
"","null","learning_trial","html-keyboard-response","207","636620","0.0-3.0-1.99","14","3","
    <div class = 'grid-container'>
        <div class='header-text'> Friends </div>
        <div>
            Justin
            <img width='150' style='border:2px black solid;' src='stims/img/CFD-BM-246-192-N.jpg'>
        </div>
        <div> &nbsp; + &nbsp; </div>
        <div>
            Melanie
            <img width='150' style='border:2px black solid;' src='stims/img/CFD-LF-207-198-N.jpg'>
        </div>
        <div class='header-text'> &nbsp; </div>
    </div>
    ","null","5","false","2","stims/img/CFD-LF-207-198-N.jpg","Melanie","3","stims/img/CFD-BM-246-192-N.jpg","Justin","","",""
"","null","fixation","html-keyboard-response","208","637123","0.0-3.0-0.100","14","3","<div style = ""font-size:60px;""> + </div>","null","","","","","","","","","","",""
"","null","learning_trial","html-keyboard-response","209","639630","0.0-3.0-1.100","14","3","
    <div class = 'grid-container'>
        <div class='header-text'> Friends </div>
        <div>
            Lucas
            <img width='150' style='border:2px black solid;' src='stims/img/CFD-LM-244-068-N.jpg'>
        </div>
        <div> &nbsp; + &nbsp; </div>
        <div>
            Jonathan
            <img width='150' style='border:2px black solid;' src='stims/img/CFD-AM-251-124-N.jpg'>
        </div>
        <div class='header-text'> &nbsp; </div>
    </div>
    ","null","5","true","6","stims/img/CFD-LM-244-068-N.jpg","Lucas","7","stims/img/CFD-AM-251-124-N.jpg","Jonathan","","",""
"","null","fixation","html-keyboard-response","210","640136","0.0-3.0-0.101","14","3","<div style = ""font-size:60px;""> + </div>","null","","","","","","","","","","",""
"","null","learning_trial","html-keyboard-response","211","642641","0.0-3.0-1.101","14","3","
    <div class = 'grid-container'>
        <div class='header-text'> Friends </div>
        <div>
            Justin
            <img width='150' style='border:2px black solid;' src='stims/img/CFD-BM-246-192-N.jpg'>
        </div>
        <div> &nbsp; + &nbsp; </div>
        <div>
            David
            <img width='150' style='border:2px black solid;' src='stims/img/CFD-BM-226-276-N.jpg'>
        </div>
        <div class='header-text'> &nbsp; </div>
    </div>
    ","null","5","true","3","stims/img/CFD-BM-246-192-N.jpg","Justin","5","stims/img/CFD-BM-226-276-N.jpg","David","","",""
"","2093","break","html-keyboard-response","212","644736","0.0-3.0-2.101-0.101","14","3","If you'd like to take a break before continuing, 
    please do so now. <p>To continue, please press the spacebar.</p>"," ","","","","","","","","","","",""
"","null","fixation","html-keyboard-response","213","645242","0.0-3.0-0.102","14","3","<div style = ""font-size:60px;""> + </div>","null","","","","","","","","","","",""
"","null","learning_trial","html-keyboard-response","214","647749","0.0-3.0-1.102","14","3","
    <div class = 'grid-container'>
        <div class='header-text'> Friends </div>
        <div>
            Makayla
            <img width='150' style='border:2px black solid;' src='stims/img/CFD-BF-247-179-N.jpg'>
        </div>
        <div> &nbsp; + &nbsp; </div>
        <div>
            Ashley
            <img width='150' style='border:2px black solid;' src='stims/img/CFD-AF-250-200-N.jpg'>
        </div>
        <div class='header-text'> &nbsp; </div>
    </div>
    ","null","6","false","8","stims/img/CFD-AF-250-200-N.jpg","Ashley","10","stims/img/CFD-BF-247-179-N.jpg","Makayla","","",""
"","null","fixation","html-keyboard-response","215","648256","0.0-3.0-0.103","14","3","<div style = ""font-size:60px;""> + </div>","null","","","","","","","","","","",""
"","null","learning_trial","html-keyboard-response","216","650759","0.0-3.0-1.103","14","3","
    <div class = 'grid-container'>
        <div class='header-text'> Friends </div>
        <div>
            Jayden
            <img width='150' style='border:2px black solid;' src='stims/img/CFD-AM-238-269-N.jpg'>
        </div>
        <div> &nbsp; + &nbsp; </div>
        <div>
            Ella
            <img width='150' style='border:2px black solid;' src='stims/img/CFD-WF-206-147-N.jpg'>
        </div>
        <div class='header-text'> &nbsp; </div>
    </div>
    ","null","6","false","9","stims/img/CFD-WF-206-147-N.jpg","Ella","11","stims/img/CFD-AM-238-269-N.jpg","Jayden","","",""
"","null","fixation","html-keyboard-response","217","651266","0.0-3.0-0.104","14","3","<div style = ""font-size:60px;""> + </div>","null","","","","","","","","","","",""
"","null","learning_trial","html-keyboard-response","218","653773","0.0-3.0-1.104","14","3","
    <div class = 'grid-container'>
        <div class='header-text'> Friends </div>
        <div>
            Jonathan
            <img width='150' style='border:2px black solid;' src='stims/img/CFD-AM-251-124-N.jpg'>
        </div>
        <div> &nbsp; + &nbsp; </div>
        <div>
            Lucas
            <img width='150' style='border:2px black solid;' src='stims/img/CFD-LM-244-068-N.jpg'>
        </div>
        <div class='header-text'> &nbsp; </div>
    </div>
    ","null","6","false","6","stims/img/CFD-LM-244-068-N.jpg","Lucas","7","stims/img/CFD-AM-251-124-N.jpg","Jonathan","","",""
"","null","fixation","html-keyboard-response","219","654280","0.0-3.0-0.105","14","3","<div style = ""font-size:60px;""> + </div>","null","","","","","","","","","","",""
"","null","learning_trial","html-keyboard-response","220","656787","0.0-3.0-1.105","14","3","
    <div class = 'grid-container'>
        <div class='header-text'> Friends </div>
        <div>
            Mia
            <img width='150' style='border:2px black solid;' src='stims/img/CFD-WF-208-068-N.jpg'>
        </div>
        <div> &nbsp; + &nbsp; </div>
        <div>
            Melanie
            <img width='150' style='border:2px black solid;' src='stims/img/CFD-LF-207-198-N.jpg'>
        </div>
        <div class='header-text'> &nbsp; </div>
    </div>
    ","null","6","false","2","stims/img/CFD-LF-207-198-N.jpg","Melanie","4","stims/img/CFD-WF-208-068-N.jpg","Mia","","",""
"","null","fixation","html-keyboard-response","221","657289","0.0-3.0-0.106","14","3","<div style = ""font-size:60px;""> + </div>","null","","","","","","","","","","",""
"","null","learning_trial","html-keyboard-response","222","659796","0.0-3.0-1.106","14","3","
    <div class = 'grid-container'>
        <div class='header-text'> Friends </div>
        <div>
            Mia
            <img width='150' style='border:2px black solid;' src='stims/img/CFD-WF-208-068-N.jpg'>
        </div>
        <div> &nbsp; + &nbsp; </div>
        <div>
            Justin
            <img width='150' style='border:2px black solid;' src='stims/img/CFD-BM-246-192-N.jpg'>
        </div>
        <div class='header-text'> &nbsp; </div>
    </div>
    ","null","6","false","3","stims/img/CFD-BM-246-192-N.jpg","Justin","4","stims/img/CFD-WF-208-068-N.jpg","Mia","","",""
"","null","fixation","html-keyboard-response","223","660302","0.0-3.0-0.107","14","3","<div style = ""font-size:60px;""> + </div>","null","","","","","","","","","","",""
"","null","learning_trial","html-keyboard-response","224","662809","0.0-3.0-1.107","14","3","
    <div class = 'grid-container'>
        <div class='header-text'> Friends </div>
        <div>
            Melanie
            <img width='150' style='border:2px black solid;' src='stims/img/CFD-LF-207-198-N.jpg'>
        </div>
        <div> &nbsp; + &nbsp; </div>
        <div>
            Justin
            <img width='150' style='border:2px black solid;' src='stims/img/CFD-BM-246-192-N.jpg'>
        </div>
        <div class='header-text'> &nbsp; </div>
    </div>
    ","null","6","true","2","stims/img/CFD-LF-207-198-N.jpg","Melanie","3","stims/img/CFD-BM-246-192-N.jpg","Justin","","",""
"","null","fixation","html-keyboard-response","225","663315","0.0-3.0-0.108","14","3","<div style = ""font-size:60px;""> + </div>","null","","","","","","","","","","",""
"","null","learning_trial","html-keyboard-response","226","665821","0.0-3.0-1.108","14","3","
    <div class = 'grid-container'>
        <div class='header-text'> Friends </div>
        <div>
            David
            <img width='150' style='border:2px black solid;' src='stims/img/CFD-BM-226-276-N.jpg'>
        </div>
        <div> &nbsp; + &nbsp; </div>
        <div>
            Mia
            <img width='150' style='border:2px black solid;' src='stims/img/CFD-WF-208-068-N.jpg'>
        </div>
        <div class='header-text'> &nbsp; </div>
    </div>
    ","null","6","false","4","stims/img/CFD-WF-208-068-N.jpg","Mia","5","stims/img/CFD-BM-226-276-N.jpg","David","","",""
"","null","fixation","html-keyboard-response","227","666327","0.0-3.0-0.109","14","3","<div style = ""font-size:60px;""> + </div>","null","","","","","","","","","","",""
"","null","learning_trial","html-keyboard-response","228","668834","0.0-3.0-1.109","14","3","
    <div class = 'grid-container'>
        <div class='header-text'> Friends </div>
        <div>
            Jayden
            <img width='150' style='border:2px black solid;' src='stims/img/CFD-AM-238-269-N.jpg'>
        </div>
        <div> &nbsp; + &nbsp; </div>
        <div>
            Savannah
            <img width='150' style='border:2px black solid;' src='stims/img/CFD-BF-217-189-N.jpg'>
        </div>
        <div class='header-text'> &nbsp; </div>
    </div>
    ","null","6","true","11","stims/img/CFD-AM-238-269-N.jpg","Jayden","12","stims/img/CFD-BF-217-189-N.jpg","Savannah","","",""
"","null","fixation","html-keyboard-response","229","669341","0.0-3.0-0.110","14","3","<div style = ""font-size:60px;""> + </div>","null","","","","","","","","","","",""
"","null","learning_trial","html-keyboard-response","230","671847","0.0-3.0-1.110","14","3","
    <div class = 'grid-container'>
        <div class='header-text'> Friends </div>
        <div>
            Lucas
            <img width='150' style='border:2px black solid;' src='stims/img/CFD-LM-244-068-N.jpg'>
        </div>
        <div> &nbsp; + &nbsp; </div>
        <div>
            Mia
            <img width='150' style='border:2px black solid;' src='stims/img/CFD-WF-208-068-N.jpg'>
        </div>
        <div class='header-text'> &nbsp; </div>
    </div>
    ","null","6","false","4","stims/img/CFD-WF-208-068-N.jpg","Mia","6","stims/img/CFD-LM-244-068-N.jpg","Lucas","","",""
"","null","fixation","html-keyboard-response","231","672353","0.0-3.0-0.111","14","3","<div style = ""font-size:60px;""> + </div>","null","","","","","","","","","","",""
"","null","learning_trial","html-keyboard-response","232","674860","0.0-3.0-1.111","14","3","
    <div class = 'grid-container'>
        <div class='header-text'> Friends </div>
        <div>
            Anthony
            <img width='150' style='border:2px black solid;' src='stims/img/CFD-WM-218-074-N.jpg'>
        </div>
        <div> &nbsp; + &nbsp; </div>
        <div>
            Ashley
            <img width='150' style='border:2px black solid;' src='stims/img/CFD-AF-250-200-N.jpg'>
        </div>
        <div class='header-text'> &nbsp; </div>
    </div>
    ","null","6","true","1","stims/img/CFD-WM-218-074-N.jpg","Anthony","8","stims/img/CFD-AF-250-200-N.jpg","Ashley","","",""
"","null","fixation","html-keyboard-response","233","675367","0.0-3.0-0.112","14","3","<div style = ""font-size:60px;""> + </div>","null","","","","","","","","","","",""
"","null","learning_trial","html-keyboard-response","234","677873","0.0-3.0-1.112","14","3","
    <div class = 'grid-container'>
        <div class='header-text'> Friends </div>
        <div>
            Jonathan
            <img width='150' style='border:2px black solid;' src='stims/img/CFD-AM-251-124-N.jpg'>
        </div>
        <div> &nbsp; + &nbsp; </div>
        <div>
            David
            <img width='150' style='border:2px black solid;' src='stims/img/CFD-BM-226-276-N.jpg'>
        </div>
        <div class='header-text'> &nbsp; </div>
    </div>
