"view_history","rt","trial_purpose","trial_type","trial_index","time_elapsed","internal_node_id","sub_id","bonus","stimulus","response","rep","display_left","from_id","from_face","from_name","to_id","to_face","to_name","friendship","correct","slider_start"
"[{""page_index"":0,""viewing_time"":44072}]","44072","confirm_correct","instructions","0","44070","0.0-0.0","27","4","","","","","","","","","","","","",""
"[{""page_index"":0,""viewing_time"":263209},{""page_index"":1,""viewing_time"":8084},{""page_index"":2,""viewing_time"":6467}]","277760","instructions","instructions","1","321817","0.0-1.0","27","4","","","","","","","","","","","","",""
"[{""page_index"":0,""viewing_time"":5178},{""page_index"":1,""viewing_time"":9484},{""page_index"":2,""viewing_time"":16183},{""page_index"":3,""viewing_time"":7867}]","38713","instructions","instructions","2","360533","0.0-2.0","27","4","","","","","","","","","","","","",""
"","null","fixation","html-keyboard-response","3","361042","0.0-3.0-0.0","27","4","<div style = ""font-size:60px;""> + </div>","null","","","","","","","","","","",""
"","null","learning_trial","html-keyboard-response","4","363551","0.0-3.0-1.0","27","4","
    <div class = 'grid-container'>
        <div class='header-text'> Friends </div>
        <div>
            Andrew
            <img width='150' style='border:2px black solid;' src='stims/img/CFD-AM-250-149-N.jpg'>
        </div>
        <div> &nbsp; + &nbsp; </div>
        <div>
            Grace
            <img width='150' style='border:2px black solid;' src='stims/img/CFD-WF-235-121-N.jpg'>
        </div>
        <div class='header-text'> &nbsp; </div>
    </div>
    ","null","0","true","2","stims/img/CFD-AM-250-149-N.jpg","Andrew","4","stims/img/CFD-WF-235-121-N.jpg","Grace","","",""
"","null","fixation","html-keyboard-response","5","364055","0.0-3.0-0.1","27","4","<div style = ""font-size:60px;""> + </div>","null","","","","","","","","","","",""
"","null","learning_trial","html-keyboard-response","6","366562","0.0-3.0-1.1","27","4","
    <div class = 'grid-container'>
        <div class='header-text'> Friends </div>
        <div>
            Isabella
            <img width='150' style='border:2px black solid;' src='stims/img/CFD-LF-217-082-N.jpg'>
        </div>
        <div> &nbsp; + &nbsp; </div>
        <div>
            Amy
            <img width='150' style='border:2px black solid;' src='stims/img/CFD-LF-228-125-N.jpg'>
        </div>
        <div class='header-text'> &nbsp; </div>
    </div>
    ","null","0","true","5","stims/img/CFD-LF-217-082-N.jpg","Isabella","7","stims/img/CFD-LF-228-125-N.jpg","Amy","","",""
"","null","fixation","html-keyboard-response","7","367068","0.0-3.0-0.2","27","4","<div style = ""font-size:60px;""> + </div>","null","","","","","","","","","","",""
"","null","learning_trial","html-keyboard-response","8","369577","0.0-3.0-1.2","27","4","
    <div class = 'grid-container'>
        <div class='header-text'> Friends </div>
        <div>
            Justin
            <img width='150' style='border:2px black solid;' src='stims/img/CFD-BM-201-077-N.jpg'>
        </div>
        <div> &nbsp; + &nbsp; </div>
        <div>
            Michael
            <img width='150' style='border:2px black solid;' src='stims/img/CFD-BM-226-276-N.jpg'>
        </div>
        <div class='header-text'> &nbsp; </div>
    </div>
    ","null","0","true","11","stims/img/CFD-BM-201-077-N.jpg","Justin","13","stims/img/CFD-BM-226-276-N.jpg","Michael","","",""
"","null","fixation","html-keyboard-response","9","370083","0.0-3.0-0.3","27","4","<div style = ""font-size:60px;""> + </div>","null","","","","","","","","","","",""
"","null","learning_trial","html-keyboard-response","10","372589","0.0-3.0-1.3","27","4","
    <div class = 'grid-container'>
        <div class='header-text'> Friends </div>
        <div>
            Daniel
            <img width='150' style='border:2px black solid;' src='stims/img/CFD-LM-211-128-N.jpg'>
        </div>
        <div> &nbsp; + &nbsp; </div>
        <div>
            Iris
            <img width='150' style='border:2px black solid;' src='stims/img/CFD-AF-252-135-N.jpg'>
        </div>
        <div class='header-text'> &nbsp; </div>
    </div>
    ","null","0","true","8","stims/img/CFD-LM-211-128-N.jpg","Daniel","9","stims/img/CFD-AF-252-135-N.jpg","Iris","","",""
"","null","fixation","html-keyboard-response","11","373095","0.0-3.0-0.4","27","4","<div style = ""font-size:60px;""> + </div>","null","","","","","","","","","","",""
"","null","learning_trial","html-keyboard-response","12","375603","0.0-3.0-1.4","27","4","
    <div class = 'grid-container'>
        <div class='header-text'> Friends </div>
        <div>
            Brianna
            <img width='150' style='border:2px black solid;' src='stims/img/CFD-BF-244-231-N.jpg'>
        </div>
        <div> &nbsp; + &nbsp; </div>
        <div>
            Justin
            <img width='150' style='border:2px black solid;' src='stims/img/CFD-BM-201-077-N.jpg'>
        </div>
        <div class='header-text'> &nbsp; </div>
    </div>
    ","null","0","false","11","stims/img/CFD-BM-201-077-N.jpg","Justin","12","stims/img/CFD-BF-244-231-N.jpg","Brianna","","",""
"","null","fixation","html-keyboard-response","13","376110","0.0-3.0-0.5","27","4","<div style = ""font-size:60px;""> + </div>","null","","","","","","","","","","",""
"","null","learning_trial","html-keyboard-response","14","378617","0.0-3.0-1.5","27","4","
    <div class = 'grid-container'>
        <div class='header-text'> Friends </div>
        <div>
            Andrew
            <img width='150' style='border:2px black solid;' src='stims/img/CFD-AM-250-149-N.jpg'>
        </div>
        <div> &nbsp; + &nbsp; </div>
        <div>
            John
            <img width='150' style='border:2px black solid;' src='stims/img/CFD-WM-237-052-N.jpg'>
        </div>
        <div class='header-text'> &nbsp; </div>
    </div>
    ","null","0","false","1","stims/img/CFD-WM-237-052-N.jpg","John","2","stims/img/CFD-AM-250-149-N.jpg","Andrew","","",""
"","null","fixation","html-keyboard-response","15","379123","0.0-3.0-0.6","27","4","<div style = ""font-size:60px;""> + </div>","null","","","","","","","","","","",""
"","null","learning_trial","html-keyboard-response","16","381631","0.0-3.0-1.6","27","4","
    <div class = 'grid-container'>
        <div class='header-text'> Friends </div>
        <div>
            Isabella
            <img width='150' style='border:2px black solid;' src='stims/img/CFD-LF-217-082-N.jpg'>
        </div>
        <div> &nbsp; + &nbsp; </div>
        <div>
            Emma
            <img width='150' style='border:2px black solid;' src='stims/img/CFD-WF-231-099-N.jpg'>
        </div>
        <div class='header-text'> &nbsp; </div>
    </div>
    ","null","0","false","3","stims/img/CFD-WF-231-099-N.jpg","Emma","5","stims/img/CFD-LF-217-082-N.jpg","Isabella","","",""
"","null","fixation","html-keyboard-response","17","382137","0.0-3.0-0.7","27","4","<div style = ""font-size:60px;""> + </div>","null","","","","","","","","","","",""
"","null","learning_trial","html-keyboard-response","18","384642","0.0-3.0-1.7","27","4","
    <div class = 'grid-container'>
        <div class='header-text'> Friends </div>
        <div>
            Ryan
            <img width='150' style='border:2px black solid;' src='stims/img/CFD-WM-210-057-N.jpg'>
        </div>
        <div> &nbsp; + &nbsp; </div>
        <div>
            Amy
            <img width='150' style='border:2px black solid;' src='stims/img/CFD-LF-228-125-N.jpg'>
        </div>
        <div class='header-text'> &nbsp; </div>
    </div>
    ","null","0","true","6","stims/img/CFD-WM-210-057-N.jpg","Ryan","7","stims/img/CFD-LF-228-125-N.jpg","Amy","","",""
"","null","fixation","html-keyboard-response","19","385148","0.0-3.0-0.8","27","4","<div style = ""font-size:60px;""> + </div>","null","","","","","","","","","","",""
"","null","learning_trial","html-keyboard-response","20","387651","0.0-3.0-1.8","27","4","
    <div class = 'grid-container'>
        <div class='header-text'> Friends </div>
        <div>
            Grace
            <img width='150' style='border:2px black solid;' src='stims/img/CFD-WF-235-121-N.jpg'>
        </div>
        <div> &nbsp; + &nbsp; </div>
        <div>
            Isabella
            <img width='150' style='border:2px black solid;' src='stims/img/CFD-LF-217-082-N.jpg'>
        </div>
        <div class='header-text'> &nbsp; </div>
    </div>
    ","null","0","true","4","stims/img/CFD-WF-235-121-N.jpg","Grace","5","stims/img/CFD-LF-217-082-N.jpg","Isabella","","",""
"","null","fixation","html-keyboard-response","21","388157","0.0-3.0-0.9","27","4","<div style = ""font-size:60px;""> + </div>","null","","","","","","","","","","",""
"","null","learning_trial","html-keyboard-response","22","390665","0.0-3.0-1.9","27","4","
    <div class = 'grid-container'>
        <div class='header-text'> Friends </div>
        <div>
            Justin
            <img width='150' style='border:2px black solid;' src='stims/img/CFD-BM-201-077-N.jpg'>
        </div>
        <div> &nbsp; + &nbsp; </div>
        <div>
            Iris
            <img width='150' style='border:2px black solid;' src='stims/img/CFD-AF-252-135-N.jpg'>
        </div>
        <div class='header-text'> &nbsp; </div>
    </div>
    ","null","0","false","9","stims/img/CFD-AF-252-135-N.jpg","Iris","11","stims/img/CFD-BM-201-077-N.jpg","Justin","","",""
"","null","fixation","html-keyboard-response","23","391171","0.0-3.0-0.10","27","4","<div style = ""font-size:60px;""> + </div>","null","","","","","","","","","","",""
"","null","learning_trial","html-keyboard-response","24","393676","0.0-3.0-1.10","27","4","
    <div class = 'grid-container'>
        <div class='header-text'> Friends </div>
        <div>
            Ryan
            <img width='150' style='border:2px black solid;' src='stims/img/CFD-WM-210-057-N.jpg'>
        </div>
        <div> &nbsp; + &nbsp; </div>
        <div>
            Grace
            <img width='150' style='border:2px black solid;' src='stims/img/CFD-WF-235-121-N.jpg'>
        </div>
        <div class='header-text'> &nbsp; </div>
    </div>
    ","null","0","false","4","stims/img/CFD-WF-235-121-N.jpg","Grace","6","stims/img/CFD-WM-210-057-N.jpg","Ryan","","",""
"","null","fixation","html-keyboard-response","25","394182","0.0-3.0-0.11","27","4","<div style = ""font-size:60px;""> + </div>","null","","","","","","","","","","",""
"","null","learning_trial","html-keyboard-response","26","396689","0.0-3.0-1.11","27","4","
    <div class = 'grid-container'>
        <div class='header-text'> Friends </div>
        <div>
            Grace
            <img width='150' style='border:2px black solid;' src='stims/img/CFD-WF-235-121-N.jpg'>
        </div>
        <div> &nbsp; + &nbsp; </div>
        <div>
            Emma
            <img width='150' style='border:2px black solid;' src='stims/img/CFD-WF-231-099-N.jpg'>
        </div>
        <div class='header-text'> &nbsp; </div>
    </div>
    ","null","0","false","3","stims/img/CFD-WF-231-099-N.jpg","Emma","4","stims/img/CFD-WF-235-121-N.jpg","Grace","","",""
"","null","fixation","html-keyboard-response","27","397195","0.0-3.0-0.12","27","4","<div style = ""font-size:60px;""> + </div>","null","","","","","","","","","","",""
"","null","learning_trial","html-keyboard-response","28","399701","0.0-3.0-1.12","27","4","
    <div class = 'grid-container'>
        <div class='header-text'> Friends </div>
        <div>
            Emma
            <img width='150' style='border:2px black solid;' src='stims/img/CFD-WF-231-099-N.jpg'>
        </div>
        <div> &nbsp; + &nbsp; </div>
        <div>
            Andrew
            <img width='150' style='border:2px black solid;' src='stims/img/CFD-AM-250-149-N.jpg'>
        </div>
        <div class='header-text'> &nbsp; </div>
    </div>
    ","null","0","false","2","stims/img/CFD-AM-250-149-N.jpg","Andrew","3","stims/img/CFD-WF-231-099-N.jpg","Emma","","",""
"","null","fixation","html-keyboard-response","29","400207","0.0-3.0-0.13","27","4","<div style = ""font-size:60px;""> + </div>","null","","","","","","","","","","",""
"","null","learning_trial","html-keyboard-response","30","402713","0.0-3.0-1.13","27","4","
    <div class = 'grid-container'>
        <div class='header-text'> Friends </div>
        <div>
            Daniel
            <img width='150' style='border:2px black solid;' src='stims/img/CFD-LM-211-128-N.jpg'>
        </div>
        <div> &nbsp; + &nbsp; </div>
        <div>
            John
            <img width='150' style='border:2px black solid;' src='stims/img/CFD-WM-237-052-N.jpg'>
        </div>
        <div class='header-text'> &nbsp; </div>
    </div>
    ","null","0","false","1","stims/img/CFD-WM-237-052-N.jpg","John","8","stims/img/CFD-LM-211-128-N.jpg","Daniel","","",""
"","null","fixation","html-keyboard-response","31","403220","0.0-3.0-0.14","27","4","<div style = ""font-size:60px;""> + </div>","null","","","","","","","","","","",""
"","null","learning_trial","html-keyboard-response","32","405728","0.0-3.0-1.14","27","4","
    <div class = 'grid-container'>
        <div class='header-text'> Friends </div>
        <div>
            Brianna
            <img width='150' style='border:2px black solid;' src='stims/img/CFD-BF-244-231-N.jpg'>
        </div>
        <div> &nbsp; + &nbsp; </div>
        <div>
            Michael
            <img width='150' style='border:2px black solid;' src='stims/img/CFD-BM-226-276-N.jpg'>
        </div>
        <div class='header-text'> &nbsp; </div>
    </div>
    ","null","0","true","12","stims/img/CFD-BF-244-231-N.jpg","Brianna","13","stims/img/CFD-BM-226-276-N.jpg","Michael","","",""
"","null","fixation","html-keyboard-response","33","406234","0.0-3.0-0.15","27","4","<div style = ""font-size:60px;""> + </div>","null","","","","","","","","","","",""
"","null","learning_trial","html-keyboard-response","34","408740","0.0-3.0-1.15","27","4","
    <div class = 'grid-container'>
        <div class='header-text'> Friends </div>
        <div>
            Daniel
            <img width='150' style='border:2px black solid;' src='stims/img/CFD-LM-211-128-N.jpg'>
        </div>
        <div> &nbsp; + &nbsp; </div>
        <div>
            Matthew
            <img width='150' style='border:2px black solid;' src='stims/img/CFD-AM-242-176-N.jpg'>
        </div>
        <div class='header-text'> &nbsp; </div>
    </div>
    ","null","0","true","8","stims/img/CFD-LM-211-128-N.jpg","Daniel","10","stims/img/CFD-AM-242-176-N.jpg","Matthew","","",""
"","null","fixation","html-keyboard-response","35","409247","0.0-3.0-0.16","27","4","<div style = ""font-size:60px;""> + </div>","null","","","","","","","","","","",""
"","null","learning_trial","html-keyboard-response","36","411754","0.0-3.0-1.16","27","4","
    <div class = 'grid-container'>
        <div class='header-text'> Friends </div>
        <div>
            Brianna
            <img width='150' style='border:2px black solid;' src='stims/img/CFD-BF-244-231-N.jpg'>
        </div>
        <div> &nbsp; + &nbsp; </div>
        <div>
            Matthew
            <img width='150' style='border:2px black solid;' src='stims/img/CFD-AM-242-176-N.jpg'>
        </div>
        <div class='header-text'> &nbsp; </div>
    </div>
    ","null","0","false","10","stims/img/CFD-AM-242-176-N.jpg","Matthew","12","stims/img/CFD-BF-244-231-N.jpg","Brianna","","",""
"","2237","break","html-keyboard-response","37","413994","0.0-3.0-2.16-0.16","27","4","If you'd like to take a break before continuing, 
    please do so now. <p>To continue, please press the spacebar.</p>"," ","","","","","","","","","","",""
"","null","fixation","html-keyboard-response","38","414496","0.0-3.0-0.17","27","4","<div style = ""font-size:60px;""> + </div>","null","","","","","","","","","","",""
"","null","learning_trial","html-keyboard-response","39","417003","0.0-3.0-1.17","27","4","
    <div class = 'grid-container'>
        <div class='header-text'> Friends </div>
        <div>
            Iris
            <img width='150' style='border:2px black solid;' src='stims/img/CFD-AF-252-135-N.jpg'>
        </div>
        <div> &nbsp; + &nbsp; </div>
        <div>
            Justin
            <img width='150' style='border:2px black solid;' src='stims/img/CFD-BM-201-077-N.jpg'>
        </div>
        <div class='header-text'> &nbsp; </div>
    </div>
    ","null","1","true","9","stims/img/CFD-AF-252-135-N.jpg","Iris","11","stims/img/CFD-BM-201-077-N.jpg","Justin","","",""
"","null","fixation","html-keyboard-response","40","417510","0.0-3.0-0.18","27","4","<div style = ""font-size:60px;""> + </div>","null","","","","","","","","","","",""
"","null","learning_trial","html-keyboard-response","41","420016","0.0-3.0-1.18","27","4","
    <div class = 'grid-container'>
        <div class='header-text'> Friends </div>
        <div>
            Iris
            <img width='150' style='border:2px black solid;' src='stims/img/CFD-AF-252-135-N.jpg'>
        </div>
        <div> &nbsp; + &nbsp; </div>
        <div>
            Daniel
            <img width='150' style='border:2px black solid;' src='stims/img/CFD-LM-211-128-N.jpg'>
        </div>
        <div class='header-text'> &nbsp; </div>
    </div>
    ","null","1","false","8","stims/img/CFD-LM-211-128-N.jpg","Daniel","9","stims/img/CFD-AF-252-135-N.jpg","Iris","","",""
"","null","fixation","html-keyboard-response","42","420522","0.0-3.0-0.19","27","4","<div style = ""font-size:60px;""> + </div>","null","","","","","","","","","","",""
"","null","learning_trial","html-keyboard-response","43","423030","0.0-3.0-1.19","27","4","
    <div class = 'grid-container'>
        <div class='header-text'> Friends </div>
        <div>
            Isabella
            <img width='150' style='border:2px black solid;' src='stims/img/CFD-LF-217-082-N.jpg'>
        </div>
        <div> &nbsp; + &nbsp; </div>
        <div>
            Grace
            <img width='150' style='border:2px black solid;' src='stims/img/CFD-WF-235-121-N.jpg'>
        </div>
        <div class='header-text'> &nbsp; </div>
    </div>
    ","null","1","false","4","stims/img/CFD-WF-235-121-N.jpg","Grace","5","stims/img/CFD-LF-217-082-N.jpg","Isabella","","",""
"","null","fixation","html-keyboard-response","44","423536","0.0-3.0-0.20","27","4","<div style = ""font-size:60px;""> + </div>","null","","","","","","","","","","",""
"","null","learning_trial","html-keyboard-response","45","426043","0.0-3.0-1.20","27","4","
    <div class = 'grid-container'>
        <div class='header-text'> Friends </div>
        <div>
            Justin
            <img width='150' style='border:2px black solid;' src='stims/img/CFD-BM-201-077-N.jpg'>
        </div>
        <div> &nbsp; + &nbsp; </div>
        <div>
            Brianna
            <img width='150' style='border:2px black solid;' src='stims/img/CFD-BF-244-231-N.jpg'>
        </div>
        <div class='header-text'> &nbsp; </div>
    </div>
    ","null","1","true","11","stims/img/CFD-BM-201-077-N.jpg","Justin","12","stims/img/CFD-BF-244-231-N.jpg","Brianna","","",""
"","null","fixation","html-keyboard-response","46","426549","0.0-3.0-0.21","27","4","<div style = ""font-size:60px;""> + </div>","null","","","","","","","","","","",""
"","null","learning_trial","html-keyboard-response","47","429056","0.0-3.0-1.21","27","4","
    <div class = 'grid-container'>
        <div class='header-text'> Friends </div>
        <div>
            Andrew
            <img width='150' style='border:2px black solid;' src='stims/img/CFD-AM-250-149-N.jpg'>
        </div>
        <div> &nbsp; + &nbsp; </div>
        <div>
            Emma
            <img width='150' style='border:2px black solid;' src='stims/img/CFD-WF-231-099-N.jpg'>
        </div>
        <div class='header-text'> &nbsp; </div>
    </div>
    ","null","1","true","2","stims/img/CFD-AM-250-149-N.jpg","Andrew","3","stims/img/CFD-WF-231-099-N.jpg","Emma","","",""
"","null","fixation","html-keyboard-response","48","429562","0.0-3.0-0.22","27","4","<div style = ""font-size:60px;""> + </div>","null","","","","","","","","","","",""
"","null","learning_trial","html-keyboard-response","49","432070","0.0-3.0-1.22","27","4","
    <div class = 'grid-container'>
        <div class='header-text'> Friends </div>
        <div>
            John
            <img width='150' style='border:2px black solid;' src='stims/img/CFD-WM-237-052-N.jpg'>
        </div>
        <div> &nbsp; + &nbsp; </div>
        <div>
            Andrew
            <img width='150' style='border:2px black solid;' src='stims/img/CFD-AM-250-149-N.jpg'>
        </div>
        <div class='header-text'> &nbsp; </div>
    </div>
    ","null","1","true","1","stims/img/CFD-WM-237-052-N.jpg","John","2","stims/img/CFD-AM-250-149-N.jpg","Andrew","","",""
"","null","fixation","html-keyboard-response","50","432577","0.0-3.0-0.23","27","4","<div style = ""font-size:60px;""> + </div>","null","","","","","","","","","","",""
"","null","learning_trial","html-keyboard-response","51","435083","0.0-3.0-1.23","27","4","
    <div class = 'grid-container'>
        <div class='header-text'> Friends </div>
        <div>
            Matthew
            <img width='150' style='border:2px black solid;' src='stims/img/CFD-AM-242-176-N.jpg'>
        </div>
        <div> &nbsp; + &nbsp; </div>
        <div>
            Daniel
            <img width='150' style='border:2px black solid;' src='stims/img/CFD-LM-211-128-N.jpg'>
        </div>
        <div class='header-text'> &nbsp; </div>
    </div>
    ","null","1","false","8","stims/img/CFD-LM-211-128-N.jpg","Daniel","10","stims/img/CFD-AM-242-176-N.jpg","Matthew","","",""
"","null","fixation","html-keyboard-response","52","435589","0.0-3.0-0.24","27","4","<div style = ""font-size:60px;""> + </div>","null","","","","","","","","","","",""
"","null","learning_trial","html-keyboard-response","53","438096","0.0-3.0-1.24","27","4","
    <div class = 'grid-container'>
        <div class='header-text'> Friends </div>
        <div>
            Amy
            <img width='150' style='border:2px black solid;' src='stims/img/CFD-LF-228-125-N.jpg'>
        </div>
        <div> &nbsp; + &nbsp; </div>
        <div>
            Isabella
            <img width='150' style='border:2px black solid;' src='stims/img/CFD-LF-217-082-N.jpg'>
        </div>
        <div class='header-text'> &nbsp; </div>
    </div>
    ","null","1","false","5","stims/img/CFD-LF-217-082-N.jpg","Isabella","7","stims/img/CFD-LF-228-125-N.jpg","Amy","","",""
"","null","fixation","html-keyboard-response","54","438602","0.0-3.0-0.25","27","4","<div style = ""font-size:60px;""> + </div>","null","","","","","","","","","","",""
"","null","learning_trial","html-keyboard-response","55","441109","0.0-3.0-1.25","27","4","
    <div class = 'grid-container'>
        <div class='header-text'> Friends </div>
        <div>
            Andrew
            <img width='150' style='border:2px black solid;' src='stims/img/CFD-AM-250-149-N.jpg'>
        </div>
        <div> &nbsp; + &nbsp; </div>
        <div>
            Grace
            <img width='150' style='border:2px black solid;' src='stims/img/CFD-WF-235-121-N.jpg'>
        </div>
        <div class='header-text'> &nbsp; </div>
    </div>
    ","null","1","true","2","stims/img/CFD-AM-250-149-N.jpg","Andrew","4","stims/img/CFD-WF-235-121-N.jpg","Grace","","",""
"","null","fixation","html-keyboard-response","56","441615","0.0-3.0-0.26","27","4","<div style = ""font-size:60px;""> + </div>","null","","","","","","","","","","",""
"","null","learning_trial","html-keyboard-response","57","444121","0.0-3.0-1.26","27","4","
    <div class = 'grid-container'>
        <div class='header-text'> Friends </div>
        <div>
            Ryan
            <img width='150' style='border:2px black solid;' src='stims/img/CFD-WM-210-057-N.jpg'>
        </div>
        <div> &nbsp; + &nbsp; </div>
        <div>
            Grace
            <img width='150' style='border:2px black solid;' src='stims/img/CFD-WF-235-121-N.jpg'>
        </div>
        <div class='header-text'> &nbsp; </div>
    </div>
    ","null","1","false","4","stims/img/CFD-WF-235-121-N.jpg","Grace","6","stims/img/CFD-WM-210-057-N.jpg","Ryan","","",""
"","null","fixation","html-keyboard-response","58","444627","0.0-3.0-0.27","27","4","<div style = ""font-size:60px;""> + </div>","null","","","","","","","","","","",""
"","null","learning_trial","html-keyboard-response","59","447134","0.0-3.0-1.27","27","4","
    <div class = 'grid-container'>
        <div class='header-text'> Friends </div>
        <div>
            Daniel
            <img width='150' style='border:2px black solid;' src='stims/img/CFD-LM-211-128-N.jpg'>
        </div>
        <div> &nbsp; + &nbsp; </div>
        <div>
            John
            <img width='150' style='border:2px black solid;' src='stims/img/CFD-WM-237-052-N.jpg'>
        </div>
        <div class='header-text'> &nbsp; </div>
    </div>
    ","null","1","false","1","stims/img/CFD-WM-237-052-N.jpg","John","8","stims/img/CFD-LM-211-128-N.jpg","Daniel","","",""
"","null","fixation","html-keyboard-response","60","447641","0.0-3.0-0.28","27","4","<div style = ""font-size:60px;""> + </div>","null","","","","","","","","","","",""
"","null","learning_trial","html-keyboard-response","61","450144","0.0-3.0-1.28","27","4","
    <div class = 'grid-container'>
        <div class='header-text'> Friends </div>
        <div>
            Amy
            <img width='150' style='border:2px black solid;' src='stims/img/CFD-LF-228-125-N.jpg'>
        </div>
        <div> &nbsp; + &nbsp; </div>
        <div>
            Ryan
            <img width='150' style='border:2px black solid;' src='stims/img/CFD-WM-210-057-N.jpg'>
        </div>
        <div class='header-text'> &nbsp; </div>
    </div>
    ","null","1","false","6","stims/img/CFD-WM-210-057-N.jpg","Ryan","7","stims/img/CFD-LF-228-125-N.jpg","Amy","","",""
"","null","fixation","html-keyboard-response","62","450646","0.0-3.0-0.29","27","4","<div style = ""font-size:60px;""> + </div>","null","","","","","","","","","","",""
"","null","learning_trial","html-keyboard-response","63","453152","0.0-3.0-1.29","27","4","
    <div class = 'grid-container'>
        <div class='header-text'> Friends </div>
        <div>
            Matthew
            <img width='150' style='border:2px black solid;' src='stims/img/CFD-AM-242-176-N.jpg'>
        </div>
        <div> &nbsp; + &nbsp; </div>
        <div>
            Brianna
            <img width='150' style='border:2px black solid;' src='stims/img/CFD-BF-244-231-N.jpg'>
        </div>
        <div class='header-text'> &nbsp; </div>
    </div>
    ","null","1","true","10","stims/img/CFD-AM-242-176-N.jpg","Matthew","12","stims/img/CFD-BF-244-231-N.jpg","Brianna","","",""
"","null","fixation","html-keyboard-response","64","453659","0.0-3.0-0.30","27","4","<div style = ""font-size:60px;""> + </div>","null","","","","","","","","","","",""
"","null","learning_trial","html-keyboard-response","65","456166","0.0-3.0-1.30","27","4","
    <div class = 'grid-container'>
        <div class='header-text'> Friends </div>
        <div>
            Emma
            <img width='150' style='border:2px black solid;' src='stims/img/CFD-WF-231-099-N.jpg'>
        </div>
        <div> &nbsp; + &nbsp; </div>
        <div>
            Isabella
            <img width='150' style='border:2px black solid;' src='stims/img/CFD-LF-217-082-N.jpg'>
        </div>
        <div class='header-text'> &nbsp; </div>
    </div>
    ","null","1","true","3","stims/img/CFD-WF-231-099-N.jpg","Emma","5","stims/img/CFD-LF-217-082-N.jpg","Isabella","","",""
"","null","fixation","html-keyboard-response","66","456671","0.0-3.0-0.31","27","4","<div style = ""font-size:60px;""> + </div>","null","","","","","","","","","","",""
"","null","learning_trial","html-keyboard-response","67","459179","0.0-3.0-1.31","27","4","
    <div class = 'grid-container'>
        <div class='header-text'> Friends </div>
        <div>
            Emma
            <img width='150' style='border:2px black solid;' src='stims/img/CFD-WF-231-099-N.jpg'>
        </div>
        <div> &nbsp; + &nbsp; </div>
        <div>
            Grace
            <img width='150' style='border:2px black solid;' src='stims/img/CFD-WF-235-121-N.jpg'>
        </div>
        <div class='header-text'> &nbsp; </div>
    </div>
    ","null","1","true","3","stims/img/CFD-WF-231-099-N.jpg","Emma","4","stims/img/CFD-WF-235-121-N.jpg","Grace","","",""
"","null","fixation","html-keyboard-response","68","459684","0.0-3.0-0.32","27","4","<div style = ""font-size:60px;""> + </div>","null","","","","","","","","","","",""
"","null","learning_trial","html-keyboard-response","69","462192","0.0-3.0-1.32","27","4","
    <div class = 'grid-container'>
        <div class='header-text'> Friends </div>
        <div>
            Michael
            <img width='150' style='border:2px black solid;' src='stims/img/CFD-BM-226-276-N.jpg'>
        </div>
        <div> &nbsp; + &nbsp; </div>
        <div>
            Brianna
            <img width='150' style='border:2px black solid;' src='stims/img/CFD-BF-244-231-N.jpg'>
        </div>
        <div class='header-text'> &nbsp; </div>
    </div>
    ","null","1","false","12","stims/img/CFD-BF-244-231-N.jpg","Brianna","13","stims/img/CFD-BM-226-276-N.jpg","Michael","","",""
"","null","fixation","html-keyboard-response","70","462698","0.0-3.0-0.33","27","4","<div style = ""font-size:60px;""> + </div>","null","","","","","","","","","","",""
"","null","learning_trial","html-keyboard-response","71","465205","0.0-3.0-1.33","27","4","
    <div class = 'grid-container'>
        <div class='header-text'> Friends </div>
        <div>
            Justin
            <img width='150' style='border:2px black solid;' src='stims/img/CFD-BM-201-077-N.jpg'>
        </div>
        <div> &nbsp; + &nbsp; </div>
        <div>
            Michael
            <img width='150' style='border:2px black solid;' src='stims/img/CFD-BM-226-276-N.jpg'>
        </div>
        <div class='header-text'> &nbsp; </div>
    </div>
    ","null","1","true","11","stims/img/CFD-BM-201-077-N.jpg","Justin","13","stims/img/CFD-BM-226-276-N.jpg","Michael","","",""
"","1753","break","html-keyboard-response","72","466958","0.0-3.0-2.33-0.33","27","4","If you'd like to take a break before continuing, 
    please do so now. <p>To continue, please press the spacebar.</p>"," ","","","","","","","","","","",""
"","null","fixation","html-keyboard-response","73","467462","0.0-3.0-0.34","27","4","<div style = ""font-size:60px;""> + </div>","null","","","","","","","","","","",""
"","null","learning_trial","html-keyboard-response","74","469968","0.0-3.0-1.34","27","4","
    <div class = 'grid-container'>
        <div class='header-text'> Friends </div>
        <div>
            Grace
            <img width='150' style='border:2px black solid;' src='stims/img/CFD-WF-235-121-N.jpg'>
        </div>
        <div> &nbsp; + &nbsp; </div>
        <div>
            Isabella
            <img width='150' style='border:2px black solid;' src='stims/img/CFD-LF-217-082-N.jpg'>
        </div>
        <div class='header-text'> &nbsp; </div>
    </div>
    ","null","2","true","4","stims/img/CFD-WF-235-121-N.jpg","Grace","5","stims/img/CFD-LF-217-082-N.jpg","Isabella","","",""
"","null","fixation","html-keyboard-response","75","470474","0.0-3.0-0.35","27","4","<div style = ""font-size:60px;""> + </div>","null","","","","","","","","","","",""
"","null","learning_trial","html-keyboard-response","76","472980","0.0-3.0-1.35","27","4","
    <div class = 'grid-container'>
        <div class='header-text'> Friends </div>
        <div>
            Emma
            <img width='150' style='border:2px black solid;' src='stims/img/CFD-WF-231-099-N.jpg'>
        </div>
        <div> &nbsp; + &nbsp; </div>
        <div>
            Grace
            <img width='150' style='border:2px black solid;' src='stims/img/CFD-WF-235-121-N.jpg'>
        </div>
        <div class='header-text'> &nbsp; </div>
    </div>
    ","null","2","true","3","stims/img/CFD-WF-231-099-N.jpg","Emma","4","stims/img/CFD-WF-235-121-N.jpg","Grace","","",""
"","null","fixation","html-keyboard-response","77","473485","0.0-3.0-0.36","27","4","<div style = ""font-size:60px;""> + </div>","null","","","","","","","","","","",""
"","null","learning_trial","html-keyboard-response","78","475992","0.0-3.0-1.36","27","4","
    <div class = 'grid-container'>
        <div class='header-text'> Friends </div>
        <div>
            Daniel
            <img width='150' style='border:2px black solid;' src='stims/img/CFD-LM-211-128-N.jpg'>
        </div>
        <div> &nbsp; + &nbsp; </div>
        <div>
            Matthew
            <img width='150' style='border:2px black solid;' src='stims/img/CFD-AM-242-176-N.jpg'>
        </div>
        <div class='header-text'> &nbsp; </div>
    </div>
    ","null","2","true","8","stims/img/CFD-LM-211-128-N.jpg","Daniel","10","stims/img/CFD-AM-242-176-N.jpg","Matthew","","",""
"","null","fixation","html-keyboard-response","79","476498","0.0-3.0-0.37","27","4","<div style = ""font-size:60px;""> + </div>","null","","","","","","","","","","",""
"","null","learning_trial","html-keyboard-response","80","479004","0.0-3.0-1.37","27","4","
    <div class = 'grid-container'>
        <div class='header-text'> Friends </div>
        <div>
            Michael
            <img width='150' style='border:2px black solid;' src='stims/img/CFD-BM-226-276-N.jpg'>
        </div>
        <div> &nbsp; + &nbsp; </div>
        <div>
            Justin
            <img width='150' style='border:2px black solid;' src='stims/img/CFD-BM-201-077-N.jpg'>
        </div>
        <div class='header-text'> &nbsp; </div>
    </div>
    ","null","2","false","11","stims/img/CFD-BM-201-077-N.jpg","Justin","13","stims/img/CFD-BM-226-276-N.jpg","Michael","","",""
"","null","fixation","html-keyboard-response","81","479508","0.0-3.0-0.38","27","4","<div style = ""font-size:60px;""> + </div>","null","","","","","","","","","","",""
"","null","learning_trial","html-keyboard-response","82","482016","0.0-3.0-1.38","27","4","
    <div class = 'grid-container'>
        <div class='header-text'> Friends </div>
        <div>
            Brianna
            <img width='150' style='border:2px black solid;' src='stims/img/CFD-BF-244-231-N.jpg'>
        </div>
        <div> &nbsp; + &nbsp; </div>
        <div>
            Michael
            <img width='150' style='border:2px black solid;' src='stims/img/CFD-BM-226-276-N.jpg'>
        </div>
        <div class='header-text'> &nbsp; </div>
    </div>
    ","null","2","true","12","stims/img/CFD-BF-244-231-N.jpg","Brianna","13","stims/img/CFD-BM-226-276-N.jpg","Michael","","",""
"","null","fixation","html-keyboard-response","83","482518","0.0-3.0-0.39","27","4","<div style = ""font-size:60px;""> + </div>","null","","","","","","","","","","",""
"","null","learning_trial","html-keyboard-response","84","485024","0.0-3.0-1.39","27","4","
    <div class = 'grid-container'>
        <div class='header-text'> Friends </div>
        <div>
            Ryan
            <img width='150' style='border:2px black solid;' src='stims/img/CFD-WM-210-057-N.jpg'>
        </div>
        <div> &nbsp; + &nbsp; </div>
        <div>
            Amy
            <img width='150' style='border:2px black solid;' src='stims/img/CFD-LF-228-125-N.jpg'>
        </div>
        <div class='header-text'> &nbsp; </div>
    </div>
    ","null","2","true","6","stims/img/CFD-WM-210-057-N.jpg","Ryan","7","stims/img/CFD-LF-228-125-N.jpg","Amy","","",""
"","null","fixation","html-keyboard-response","85","485530","0.0-3.0-0.40","27","4","<div style = ""font-size:60px;""> + </div>","null","","","","","","","","","","",""
"","null","learning_trial","html-keyboard-response","86","488032","0.0-3.0-1.40","27","4","
    <div class = 'grid-container'>
        <div class='header-text'> Friends </div>
        <div>
            Brianna
            <img width='150' style='border:2px black solid;' src='stims/img/CFD-BF-244-231-N.jpg'>
        </div>
        <div> &nbsp; + &nbsp; </div>
        <div>
            Matthew
            <img width='150' style='border:2px black solid;' src='stims/img/CFD-AM-242-176-N.jpg'>
        </div>
        <div class='header-text'> &nbsp; </div>
    </div>
    ","null","2","false","10","stims/img/CFD-AM-242-176-N.jpg","Matthew","12","stims/img/CFD-BF-244-231-N.jpg","Brianna","","",""
"","null","fixation","html-keyboard-response","87","488533","0.0-3.0-0.41","27","4","<div style = ""font-size:60px;""> + </div>","null","","","","","","","","","","",""
"","null","learning_trial","html-keyboard-response","88","491039","0.0-3.0-1.41","27","4","
    <div class = 'grid-container'>
        <div class='header-text'> Friends </div>
        <div>
            Andrew
            <img width='150' style='border:2px black solid;' src='stims/img/CFD-AM-250-149-N.jpg'>
        </div>
        <div> &nbsp; + &nbsp; </div>
        <div>
            Emma
            <img width='150' style='border:2px black solid;' src='stims/img/CFD-WF-231-099-N.jpg'>
        </div>
        <div class='header-text'> &nbsp; </div>
    </div>
    ","null","2","true","2","stims/img/CFD-AM-250-149-N.jpg","Andrew","3","stims/img/CFD-WF-231-099-N.jpg","Emma","","",""
"","null","fixation","html-keyboard-response","89","491545","0.0-3.0-0.42","27","4","<div style = ""font-size:60px;""> + </div>","null","","","","","","","","","","",""
"","null","learning_trial","html-keyboard-response","90","494048","0.0-3.0-1.42","27","4","
    <div class = 'grid-container'>
        <div class='header-text'> Friends </div>
        <div>
            Emma
            <img width='150' style='border:2px black solid;' src='stims/img/CFD-WF-231-099-N.jpg'>
        </div>
        <div> &nbsp; + &nbsp; </div>
        <div>
            Isabella
            <img width='150' style='border:2px black solid;' src='stims/img/CFD-LF-217-082-N.jpg'>
        </div>
        <div class='header-text'> &nbsp; </div>
    </div>
    ","null","2","true","3","stims/img/CFD-WF-231-099-N.jpg","Emma","5","stims/img/CFD-LF-217-082-N.jpg","Isabella","","",""
"","null","fixation","html-keyboard-response","91","494553","0.0-3.0-0.43","27","4","<div style = ""font-size:60px;""> + </div>","null","","","","","","","","","","",""
"","null","learning_trial","html-keyboard-response","92","497060","0.0-3.0-1.43","27","4","
    <div class = 'grid-container'>
        <div class='header-text'> Friends </div>
        <div>
            Amy
            <img width='150' style='border:2px black solid;' src='stims/img/CFD-LF-228-125-N.jpg'>
        </div>
        <div> &nbsp; + &nbsp; </div>
        <div>
            Isabella
            <img width='150' style='border:2px black solid;' src='stims/img/CFD-LF-217-082-N.jpg'>
        </div>
        <div class='header-text'> &nbsp; </div>
    </div>
    ","null","2","false","5","stims/img/CFD-LF-217-082-N.jpg","Isabella","7","stims/img/CFD-LF-228-125-N.jpg","Amy","","",""
"","null","fixation","html-keyboard-response","93","497566","0.0-3.0-0.44","27","4","<div style = ""font-size:60px;""> + </div>","null","","","","","","","","","","",""
"","null","learning_trial","html-keyboard-response","94","500074","0.0-3.0-1.44","27","4","
    <div class = 'grid-container'>
        <div class='header-text'> Friends </div>
        <div>
            Daniel
            <img width='150' style='border:2px black solid;' src='stims/img/CFD-LM-211-128-N.jpg'>
        </div>
        <div> &nbsp; + &nbsp; </div>
        <div>
            Iris
            <img width='150' style='border:2px black solid;' src='stims/img/CFD-AF-252-135-N.jpg'>
        </div>
        <div class='header-text'> &nbsp; </div>
    </div>
    ","null","2","true","8","stims/img/CFD-LM-211-128-N.jpg","Daniel","9","stims/img/CFD-AF-252-135-N.jpg","Iris","","",""
"","null","fixation","html-keyboard-response","95","500575","0.0-3.0-0.45","27","4","<div style = ""font-size:60px;""> + </div>","null","","","","","","","","","","",""
"","null","learning_trial","html-keyboard-response","96","503082","0.0-3.0-1.45","27","4","
    <div class = 'grid-container'>
        <div class='header-text'> Friends </div>
        <div>
            Andrew
            <img width='150' style='border:2px black solid;' src='stims/img/CFD-AM-250-149-N.jpg'>
        </div>
        <div> &nbsp; + &nbsp; </div>
        <div>
            Grace
            <img width='150' style='border:2px black solid;' src='stims/img/CFD-WF-235-121-N.jpg'>
        </div>
        <div class='header-text'> &nbsp; </div>
    </div>
    ","null","2","true","2","stims/img/CFD-AM-250-149-N.jpg","Andrew","4","stims/img/CFD-WF-235-121-N.jpg","Grace","","",""
"","null","fixation","html-keyboard-response","97","503588","0.0-3.0-0.46","27","4","<div style = ""font-size:60px;""> + </div>","null","","","","","","","","","","",""
"","null","learning_trial","html-keyboard-response","98","506094","0.0-3.0-1.46","27","4","
    <div class = 'grid-container'>
        <div class='header-text'> Friends </div>
        <div>
            John
            <img width='150' style='border:2px black solid;' src='stims/img/CFD-WM-237-052-N.jpg'>
        </div>
        <div> &nbsp; + &nbsp; </div>
        <div>
            Daniel
            <img width='150' style='border:2px black solid;' src='stims/img/CFD-LM-211-128-N.jpg'>
        </div>
        <div class='header-text'> &nbsp; </div>
    </div>
    ","null","2","true","1","stims/img/CFD-WM-237-052-N.jpg","John","8","stims/img/CFD-LM-211-128-N.jpg","Daniel","","",""
"","null","fixation","html-keyboard-response","99","506603","0.0-3.0-0.47","27","4","<div style = ""font-size:60px;""> + </div>","null","","","","","","","","","","",""
"","null","learning_trial","html-keyboard-response","100","509109","0.0-3.0-1.47","27","4","
    <div class = 'grid-container'>
        <div class='header-text'> Friends </div>
        <div>
            Grace
            <img width='150' style='border:2px black solid;' src='stims/img/CFD-WF-235-121-N.jpg'>
        </div>
        <div> &nbsp; + &nbsp; </div>
        <div>
            Ryan
            <img width='150' style='border:2px black solid;' src='stims/img/CFD-WM-210-057-N.jpg'>
        </div>
        <div class='header-text'> &nbsp; </div>
    </div>
    ","null","2","true","4","stims/img/CFD-WF-235-121-N.jpg","Grace","6","stims/img/CFD-WM-210-057-N.jpg","Ryan","","",""
"","null","fixation","html-keyboard-response","101","509614","0.0-3.0-0.48","27","4","<div style = ""font-size:60px;""> + </div>","null","","","","","","","","","","",""
"","null","learning_trial","html-keyboard-response","102","512122","0.0-3.0-1.48","27","4","
    <div class = 'grid-container'>
        <div class='header-text'> Friends </div>
        <div>
            Brianna
            <img width='150' style='border:2px black solid;' src='stims/img/CFD-BF-244-231-N.jpg'>
        </div>
        <div> &nbsp; + &nbsp; </div>
        <div>
            Justin
            <img width='150' style='border:2px black solid;' src='stims/img/CFD-BM-201-077-N.jpg'>
        </div>
        <div class='header-text'> &nbsp; </div>
    </div>
    ","null","2","false","11","stims/img/CFD-BM-201-077-N.jpg","Justin","12","stims/img/CFD-BF-244-231-N.jpg","Brianna","","",""
"","null","fixation","html-keyboard-response","103","512629","0.0-3.0-0.49","27","4","<div style = ""font-size:60px;""> + </div>","null","","","","","","","","","","",""
"","null","learning_trial","html-keyboard-response","104","515135","0.0-3.0-1.49","27","4","
    <div class = 'grid-container'>
        <div class='header-text'> Friends </div>
        <div>
            John
            <img width='150' style='border:2px black solid;' src='stims/img/CFD-WM-237-052-N.jpg'>
        </div>
        <div> &nbsp; + &nbsp; </div>
        <div>
            Andrew
            <img width='150' style='border:2px black solid;' src='stims/img/CFD-AM-250-149-N.jpg'>
        </div>
        <div class='header-text'> &nbsp; </div>
    </div>
    ","null","2","true","1","stims/img/CFD-WM-237-052-N.jpg","John","2","stims/img/CFD-AM-250-149-N.jpg","Andrew","","",""
"","null","fixation","html-keyboard-response","105","515641","0.0-3.0-0.50","27","4","<div style = ""font-size:60px;""> + </div>","null","","","","","","","","","","",""
"","null","learning_trial","html-keyboard-response","106","518148","0.0-3.0-1.50","27","4","
    <div class = 'grid-container'>
        <div class='header-text'> Friends </div>
        <div>
            Justin
            <img width='150' style='border:2px black solid;' src='stims/img/CFD-BM-201-077-N.jpg'>
        </div>
        <div> &nbsp; + &nbsp; </div>
        <div>
            Iris
            <img width='150' style='border:2px black solid;' src='stims/img/CFD-AF-252-135-N.jpg'>
        </div>
        <div class='header-text'> &nbsp; </div>
    </div>
    ","null","2","false","9","stims/img/CFD-AF-252-135-N.jpg","Iris","11","stims/img/CFD-BM-201-077-N.jpg","Justin","","",""
"","2147","break","html-keyboard-response","107","520296","0.0-3.0-2.50-0.50","27","4","If you'd like to take a break before continuing, 
    please do so now. <p>To continue, please press the spacebar.</p>"," ","","","","","","","","","","",""
"","null","fixation","html-keyboard-response","108","520801","0.0-3.0-0.51","27","4","<div style = ""font-size:60px;""> + </div>","null","","","","","","","","","","",""
"","null","learning_trial","html-keyboard-response","109","523308","0.0-3.0-1.51","27","4","
    <div class = 'grid-container'>
        <div class='header-text'> Friends </div>
        <div>
            Iris
            <img width='150' style='border:2px black solid;' src='stims/img/CFD-AF-252-135-N.jpg'>
        </div>
        <div> &nbsp; + &nbsp; </div>
        <div>
            Justin
            <img width='150' style='border:2px black solid;' src='stims/img/CFD-BM-201-077-N.jpg'>
        </div>
        <div class='header-text'> &nbsp; </div>
    </div>
    ","null","3","true","9","stims/img/CFD-AF-252-135-N.jpg","Iris","11","stims/img/CFD-BM-201-077-N.jpg","Justin","","",""
"","null","fixation","html-keyboard-response","110","523812","0.0-3.0-0.52","27","4","<div style = ""font-size:60px;""> + </div>","null","","","","","","","","","","",""
"","null","learning_trial","html-keyboard-response","111","526319","0.0-3.0-1.52","27","4","
    <div class = 'grid-container'>
        <div class='header-text'> Friends </div>
        <div>
            Emma
            <img width='150' style='border:2px black solid;' src='stims/img/CFD-WF-231-099-N.jpg'>
        </div>
        <div> &nbsp; + &nbsp; </div>
        <div>
            Isabella
            <img width='150' style='border:2px black solid;' src='stims/img/CFD-LF-217-082-N.jpg'>
        </div>
        <div class='header-text'> &nbsp; </div>
    </div>
    ","null","3","true","3","stims/img/CFD-WF-231-099-N.jpg","Emma","5","stims/img/CFD-LF-217-082-N.jpg","Isabella","","",""
"","null","fixation","html-keyboard-response","112","526826","0.0-3.0-0.53","27","4","<div style = ""font-size:60px;""> + </div>","null","","","","","","","","","","",""
"","null","learning_trial","html-keyboard-response","113","529333","0.0-3.0-1.53","27","4","
    <div class = 'grid-container'>
        <div class='header-text'> Friends </div>
        <div>
            Michael
            <img width='150' style='border:2px black solid;' src='stims/img/CFD-BM-226-276-N.jpg'>
        </div>
        <div> &nbsp; + &nbsp; </div>
        <div>
            Justin
            <img width='150' style='border:2px black solid;' src='stims/img/CFD-BM-201-077-N.jpg'>
        </div>
        <div class='header-text'> &nbsp; </div>
    </div>
    ","null","3","false","11","stims/img/CFD-BM-201-077-N.jpg","Justin","13","stims/img/CFD-BM-226-276-N.jpg","Michael","","",""
"","null","fixation","html-keyboard-response","114","529839","0.0-3.0-0.54","27","4","<div style = ""font-size:60px;""> + </div>","null","","","","","","","","","","",""
"","null","learning_trial","html-keyboard-response","115","532346","0.0-3.0-1.54","27","4","
    <div class = 'grid-container'>
        <div class='header-text'> Friends </div>
        <div>
            Ryan
            <img width='150' style='border:2px black solid;' src='stims/img/CFD-WM-210-057-N.jpg'>
        </div>
        <div> &nbsp; + &nbsp; </div>
        <div>
            Amy
            <img width='150' style='border:2px black solid;' src='stims/img/CFD-LF-228-125-N.jpg'>
        </div>
        <div class='header-text'> &nbsp; </div>
    </div>
    ","null","3","true","6","stims/img/CFD-WM-210-057-N.jpg","Ryan","7","stims/img/CFD-LF-228-125-N.jpg","Amy","","",""
"","null","fixation","html-keyboard-response","116","532852","0.0-3.0-0.55","27","4","<div style = ""font-size:60px;""> + </div>","null","","","","","","","","","","",""
"","null","learning_trial","html-keyboard-response","117","535359","0.0-3.0-1.55","27","4","
    <div class = 'grid-container'>
        <div class='header-text'> Friends </div>
        <div>
            Matthew
            <img width='150' style='border:2px black solid;' src='stims/img/CFD-AM-242-176-N.jpg'>
        </div>
        <div> &nbsp; + &nbsp; </div>
        <div>
            Brianna
            <img width='150' style='border:2px black solid;' src='stims/img/CFD-BF-244-231-N.jpg'>
        </div>
        <div class='header-text'> &nbsp; </div>
    </div>
    ","null","3","true","10","stims/img/CFD-AM-242-176-N.jpg","Matthew","12","stims/img/CFD-BF-244-231-N.jpg","Brianna","","",""
"","null","fixation","html-keyboard-response","118","535862","0.0-3.0-0.56","27","4","<div style = ""font-size:60px;""> + </div>","null","","","","","","","","","","",""
"","null","learning_trial","html-keyboard-response","119","538370","0.0-3.0-1.56","27","4","
    <div class = 'grid-container'>
        <div class='header-text'> Friends </div>
        <div>
            Daniel
            <img width='150' style='border:2px black solid;' src='stims/img/CFD-LM-211-128-N.jpg'>
        </div>
        <div> &nbsp; + &nbsp; </div>
        <div>
            John
            <img width='150' style='border:2px black solid;' src='stims/img/CFD-WM-237-052-N.jpg'>
        </div>
        <div class='header-text'> &nbsp; </div>
    </div>
    ","null","3","false","1","stims/img/CFD-WM-237-052-N.jpg","John","8","stims/img/CFD-LM-211-128-N.jpg","Daniel","","",""
"","null","fixation","html-keyboard-response","120","538876","0.0-3.0-0.57","27","4","<div style = ""font-size:60px;""> + </div>","null","","","","","","","","","","",""
"","null","learning_trial","html-keyboard-response","121","541382","0.0-3.0-1.57","27","4","
    <div class = 'grid-container'>
        <div class='header-text'> Friends </div>
        <div>
            Brianna
            <img width='150' style='border:2px black solid;' src='stims/img/CFD-BF-244-231-N.jpg'>
        </div>
        <div> &nbsp; + &nbsp; </div>
        <div>
            Justin
            <img width='150' style='border:2px black solid;' src='stims/img/CFD-BM-201-077-N.jpg'>
        </div>
        <div class='header-text'> &nbsp; </div>
    </div>
    ","null","3","false","11","stims/img/CFD-BM-201-077-N.jpg","Justin","12","stims/img/CFD-BF-244-231-N.jpg","Brianna","","",""
"","null","fixation","html-keyboard-response","122","541888","0.0-3.0-0.58","27","4","<div style = ""font-size:60px;""> + </div>","null","","","","","","","","","","",""
"","null","learning_trial","html-keyboard-response","123","544392","0.0-3.0-1.58","27","4","
    <div class = 'grid-container'>
        <div class='header-text'> Friends </div>
        <div>
            Grace
            <img width='150' style='border:2px black solid;' src='stims/img/CFD-WF-235-121-N.jpg'>
        </div>
        <div> &nbsp; + &nbsp; </div>
        <div>
            Emma
            <img width='150' style='border:2px black solid;' src='stims/img/CFD-WF-231-099-N.jpg'>
        </div>
        <div class='header-text'> &nbsp; </div>
    </div>
    ","null","3","false","3","stims/img/CFD-WF-231-099-N.jpg","Emma","4","stims/img/CFD-WF-235-121-N.jpg","Grace","","",""
"","null","fixation","html-keyboard-response","124","544898","0.0-3.0-0.59","27","4","<div style = ""font-size:60px;""> + </div>","null","","","","","","","","","","",""
"","null","learning_trial","html-keyboard-response","125","547401","0.0-3.0-1.59","27","4","
    <div class = 'grid-container'>
        <div class='header-text'> Friends </div>
        <div>
            Daniel
            <img width='150' style='border:2px black solid;' src='stims/img/CFD-LM-211-128-N.jpg'>
        </div>
        <div> &nbsp; + &nbsp; </div>
        <div>
            Iris
            <img width='150' style='border:2px black solid;' src='stims/img/CFD-AF-252-135-N.jpg'>
        </div>
        <div class='header-text'> &nbsp; </div>
    </div>
    ","null","3","true","8","stims/img/CFD-LM-211-128-N.jpg","Daniel","9","stims/img/CFD-AF-252-135-N.jpg","Iris","","",""
"","null","fixation","html-keyboard-response","126","547907","0.0-3.0-0.60","27","4","<div style = ""font-size:60px;""> + </div>","null","","","","","","","","","","",""
"","null","learning_trial","html-keyboard-response","127","550414","0.0-3.0-1.60","27","4","
    <div class = 'grid-container'>
        <div class='header-text'> Friends </div>
        <div>
            Andrew
            <img width='150' style='border:2px black solid;' src='stims/img/CFD-AM-250-149-N.jpg'>
        </div>
        <div> &nbsp; + &nbsp; </div>
        <div>
            Grace
            <img width='150' style='border:2px black solid;' src='stims/img/CFD-WF-235-121-N.jpg'>
        </div>
        <div class='header-text'> &nbsp; </div>
    </div>
    ","null","3","true","2","stims/img/CFD-AM-250-149-N.jpg","Andrew","4","stims/img/CFD-WF-235-121-N.jpg","Grace","","",""
"","null","fixation","html-keyboard-response","128","550921","0.0-3.0-0.61","27","4","<div style = ""font-size:60px;""> + </div>","null","","","","","","","","","","",""
"","null","learning_trial","html-keyboard-response","129","553427","0.0-3.0-1.61","27","4","
    <div class = 'grid-container'>
        <div class='header-text'> Friends </div>
        <div>
            Brianna
            <img width='150' style='border:2px black solid;' src='stims/img/CFD-BF-244-231-N.jpg'>
        </div>
        <div> &nbsp; + &nbsp; </div>
        <div>
            Michael
            <img width='150' style='border:2px black solid;' src='stims/img/CFD-BM-226-276-N.jpg'>
        </div>
        <div class='header-text'> &nbsp; </div>
    </div>
    ","null","3","true","12","stims/img/CFD-BF-244-231-N.jpg","Brianna","13","stims/img/CFD-BM-226-276-N.jpg","Michael","","",""
"","null","fixation","html-keyboard-response","130","553933","0.0-3.0-0.62","27","4","<div style = ""font-size:60px;""> + </div>","null","","","","","","","","","","",""
"","null","learning_trial","html-keyboard-response","131","556440","0.0-3.0-1.62","27","4","
    <div class = 'grid-container'>
        <div class='header-text'> Friends </div>
        <div>
            Isabella
            <img width='150' style='border:2px black solid;' src='stims/img/CFD-LF-217-082-N.jpg'>
        </div>
        <div> &nbsp; + &nbsp; </div>
        <div>
            Grace
            <img width='150' style='border:2px black solid;' src='stims/img/CFD-WF-235-121-N.jpg'>
        </div>
        <div class='header-text'> &nbsp; </div>
    </div>
    ","null","3","false","4","stims/img/CFD-WF-235-121-N.jpg","Grace","5","stims/img/CFD-LF-217-082-N.jpg","Isabella","","",""
"","null","fixation","html-keyboard-response","132","556946","0.0-3.0-0.63","27","4","<div style = ""font-size:60px;""> + </div>","null","","","","","","","","","","",""
"","null","learning_trial","html-keyboard-response","133","559453","0.0-3.0-1.63","27","4","
    <div class = 'grid-container'>
        <div class='header-text'> Friends </div>
        <div>
            Amy
            <img width='150' style='border:2px black solid;' src='stims/img/CFD-LF-228-125-N.jpg'>
        </div>
        <div> &nbsp; + &nbsp; </div>
        <div>
            Isabella
            <img width='150' style='border:2px black solid;' src='stims/img/CFD-LF-217-082-N.jpg'>
        </div>
        <div class='header-text'> &nbsp; </div>
    </div>
    ","null","3","false","5","stims/img/CFD-LF-217-082-N.jpg","Isabella","7","stims/img/CFD-LF-228-125-N.jpg","Amy","","",""
"","null","fixation","html-keyboard-response","134","559959","0.0-3.0-0.64","27","4","<div style = ""font-size:60px;""> + </div>","null","","","","","","","","","","",""
"","null","learning_trial","html-keyboard-response","135","562463","0.0-3.0-1.64","27","4","
    <div class = 'grid-container'>
        <div class='header-text'> Friends </div>
        <div>
            Andrew
            <img width='150' style='border:2px black solid;' src='stims/img/CFD-AM-250-149-N.jpg'>
        </div>
        <div> &nbsp; + &nbsp; </div>
        <div>
            John
            <img width='150' style='border:2px black solid;' src='stims/img/CFD-WM-237-052-N.jpg'>
        </div>
        <div class='header-text'> &nbsp; </div>
    </div>
    ","null","3","false","1","stims/img/CFD-WM-237-052-N.jpg","John","2","stims/img/CFD-AM-250-149-N.jpg","Andrew","","",""
"","null","fixation","html-keyboard-response","136","562968","0.0-3.0-0.65","27","4","<div style = ""font-size:60px;""> + </div>","null","","","","","","","","","","",""
"","null","learning_trial","html-keyboard-response","137","565475","0.0-3.0-1.65","27","4","
    <div class = 'grid-container'>
        <div class='header-text'> Friends </div>
        <div>
            Daniel
            <img width='150' style='border:2px black solid;' src='stims/img/CFD-LM-211-128-N.jpg'>
        </div>
        <div> &nbsp; + &nbsp; </div>
        <div>
            Matthew
            <img width='150' style='border:2px black solid;' src='stims/img/CFD-AM-242-176-N.jpg'>
        </div>
        <div class='header-text'> &nbsp; </div>
    </div>
    ","null","3","true","8","stims/img/CFD-LM-211-128-N.jpg","Daniel","10","stims/img/CFD-AM-242-176-N.jpg","Matthew","","",""
"","null","fixation","html-keyboard-response","138","565981","0.0-3.0-0.66","27","4","<div style = ""font-size:60px;""> + </div>","null","","","","","","","","","","",""
"","null","learning_trial","html-keyboard-response","139","568489","0.0-3.0-1.66","27","4","
    <div class = 'grid-container'>
        <div class='header-text'> Friends </div>
        <div>
            Ryan
            <img width='150' style='border:2px black solid;' src='stims/img/CFD-WM-210-057-N.jpg'>
        </div>
        <div> &nbsp; + &nbsp; </div>
        <div>
            Grace
            <img width='150' style='border:2px black solid;' src='stims/img/CFD-WF-235-121-N.jpg'>
        </div>
        <div class='header-text'> &nbsp; </div>
    </div>
    ","null","3","false","4","stims/img/CFD-WF-235-121-N.jpg","Grace","6","stims/img/CFD-WM-210-057-N.jpg","Ryan","","",""
"","null","fixation","html-keyboard-response","140","568995","0.0-3.0-0.67","27","4","<div style = ""font-size:60px;""> + </div>","null","","","","","","","","","","",""
"","null","learning_trial","html-keyboard-response","141","571501","0.0-3.0-1.67","27","4","
    <div class = 'grid-container'>
        <div class='header-text'> Friends </div>
        <div>
            Emma
            <img width='150' style='border:2px black solid;' src='stims/img/CFD-WF-231-099-N.jpg'>
        </div>
        <div> &nbsp; + &nbsp; </div>
        <div>
            Andrew
            <img width='150' style='border:2px black solid;' src='stims/img/CFD-AM-250-149-N.jpg'>
        </div>
        <div class='header-text'> &nbsp; </div>
    </div>
    ","null","3","false","2","stims/img/CFD-AM-250-149-N.jpg","Andrew","3","stims/img/CFD-WF-231-099-N.jpg","Emma","","",""
"","2031","break","html-keyboard-response","142","573533","0.0-3.0-2.67-0.67","27","4","If you'd like to take a break before continuing, 
    please do so now. <p>To continue, please press the spacebar.</p>"," ","","","","","","","","","","",""
"","null","fixation","html-keyboard-response","143","574035","0.0-3.0-0.68","27","4","<div style = ""font-size:60px;""> + </div>","null","","","","","","","","","","",""
"","null","learning_trial","html-keyboard-response","144","576542","0.0-3.0-1.68","27","4","
    <div class = 'grid-container'>
        <div class='header-text'> Friends </div>
        <div>
            Brianna
            <img width='150' style='border:2px black solid;' src='stims/img/CFD-BF-244-231-N.jpg'>
        </div>
        <div> &nbsp; + &nbsp; </div>
        <div>
            Michael
            <img width='150' style='border:2px black solid;' src='stims/img/CFD-BM-226-276-N.jpg'>
        </div>
        <div class='header-text'> &nbsp; </div>
    </div>
    ","null","4","true","12","stims/img/CFD-BF-244-231-N.jpg","Brianna","13","stims/img/CFD-BM-226-276-N.jpg","Michael","","",""
"","null","fixation","html-keyboard-response","145","577049","0.0-3.0-0.69","27","4","<div style = ""font-size:60px;""> + </div>","null","","","","","","","","","","",""
"","null","learning_trial","html-keyboard-response","146","579556","0.0-3.0-1.69","27","4","
    <div class = 'grid-container'>
        <div class='header-text'> Friends </div>
        <div>
            Brianna
            <img width='150' style='border:2px black solid;' src='stims/img/CFD-BF-244-231-N.jpg'>
        </div>
        <div> &nbsp; + &nbsp; </div>
        <div>
            Justin
            <img width='150' style='border:2px black solid;' src='stims/img/CFD-BM-201-077-N.jpg'>
        </div>
        <div class='header-text'> &nbsp; </div>
    </div>
    ","null","4","false","11","stims/img/CFD-BM-201-077-N.jpg","Justin","12","stims/img/CFD-BF-244-231-N.jpg","Brianna","","",""
"","null","fixation","html-keyboard-response","147","580063","0.0-3.0-0.70","27","4","<div style = ""font-size:60px;""> + </div>","null","","","","","","","","","","",""
"","null","learning_trial","html-keyboard-response","148","582569","0.0-3.0-1.70","27","4","
    <div class = 'grid-container'>
        <div class='header-text'> Friends </div>
        <div>
            John
            <img width='150' style='border:2px black solid;' src='stims/img/CFD-WM-237-052-N.jpg'>
        </div>
        <div> &nbsp; + &nbsp; </div>
        <div>
            Andrew
            <img width='150' style='border:2px black solid;' src='stims/img/CFD-AM-250-149-N.jpg'>
        </div>
        <div class='header-text'> &nbsp; </div>
    </div>
    ","null","4","true","1","stims/img/CFD-WM-237-052-N.jpg","John","2","stims/img/CFD-AM-250-149-N.jpg","Andrew","","",""
"","null","fixation","html-keyboard-response","149","583075","0.0-3.0-0.71","27","4","<div style = ""font-size:60px;""> + </div>","null","","","","","","","","","","",""
"","null","learning_trial","html-keyboard-response","150","585581","0.0-3.0-1.71","27","4","
    <div class = 'grid-container'>
        <div class='header-text'> Friends </div>
        <div>
            Matthew
            <img width='150' style='border:2px black solid;' src='stims/img/CFD-AM-242-176-N.jpg'>
        </div>
        <div> &nbsp; + &nbsp; </div>
        <div>
            Daniel
            <img width='150' style='border:2px black solid;' src='stims/img/CFD-LM-211-128-N.jpg'>
        </div>
        <div class='header-text'> &nbsp; </div>
    </div>
    ","null","4","false","8","stims/img/CFD-LM-211-128-N.jpg","Daniel","10","stims/img/CFD-AM-242-176-N.jpg","Matthew","","",""
"","null","fixation","html-keyboard-response","151","586087","0.0-3.0-0.72","27","4","<div style = ""font-size:60px;""> + </div>","null","","","","","","","","","","",""
"","null","learning_trial","html-keyboard-response","152","588595","0.0-3.0-1.72","27","4","
    <div class = 'grid-container'>
        <div class='header-text'> Friends </div>
        <div>
            Amy
            <img width='150' style='border:2px black solid;' src='stims/img/CFD-LF-228-125-N.jpg'>
        </div>
        <div> &nbsp; + &nbsp; </div>
        <div>
            Isabella
            <img width='150' style='border:2px black solid;' src='stims/img/CFD-LF-217-082-N.jpg'>
        </div>
        <div class='header-text'> &nbsp; </div>
    </div>
    ","null","4","false","5","stims/img/CFD-LF-217-082-N.jpg","Isabella","7","stims/img/CFD-LF-228-125-N.jpg","Amy","","",""
"","null","fixation","html-keyboard-response","153","589097","0.0-3.0-0.73","27","4","<div style = ""font-size:60px;""> + </div>","null","","","","","","","","","","",""
"","null","learning_trial","html-keyboard-response","154","591602","0.0-3.0-1.73","27","4","
    <div class = 'grid-container'>
        <div class='header-text'> Friends </div>
        <div>
            Michael
            <img width='150' style='border:2px black solid;' src='stims/img/CFD-BM-226-276-N.jpg'>
        </div>
        <div> &nbsp; + &nbsp; </div>
        <div>
            Justin
            <img width='150' style='border:2px black solid;' src='stims/img/CFD-BM-201-077-N.jpg'>
        </div>
        <div class='header-text'> &nbsp; </div>
    </div>
    ","null","4","false","11","stims/img/CFD-BM-201-077-N.jpg","Justin","13","stims/img/CFD-BM-226-276-N.jpg","Michael","","",""
"","null","fixation","html-keyboard-response","155","592110","0.0-3.0-0.74","27","4","<div style = ""font-size:60px;""> + </div>","null","","","","","","","","","","",""
"","null","learning_trial","html-keyboard-response","156","594616","0.0-3.0-1.74","27","4","
    <div class = 'grid-container'>
        <div class='header-text'> Friends </div>
        <div>
            Matthew
            <img width='150' style='border:2px black solid;' src='stims/img/CFD-AM-242-176-N.jpg'>
        </div>
        <div> &nbsp; + &nbsp; </div>
        <div>
            Brianna
            <img width='150' style='border:2px black solid;' src='stims/img/CFD-BF-244-231-N.jpg'>
        </div>
        <div class='header-text'> &nbsp; </div>
    </div>
    ","null","4","true","10","stims/img/CFD-AM-242-176-N.jpg","Matthew","12","stims/img/CFD-BF-244-231-N.jpg","Brianna","","",""
"","null","fixation","html-keyboard-response","157","595122","0.0-3.0-0.75","27","4","<div style = ""font-size:60px;""> + </div>","null","","","","","","","","","","",""
"","null","learning_trial","html-keyboard-response","158","597629","0.0-3.0-1.75","27","4","
    <div class = 'grid-container'>
        <div class='header-text'> Friends </div>
        <div>
            Ryan
            <img width='150' style='border:2px black solid;' src='stims/img/CFD-WM-210-057-N.jpg'>
        </div>
        <div> &nbsp; + &nbsp; </div>
        <div>
            Amy
            <img width='150' style='border:2px black solid;' src='stims/img/CFD-LF-228-125-N.jpg'>
        </div>
        <div class='header-text'> &nbsp; </div>
    </div>
    ","null","4","true","6","stims/img/CFD-WM-210-057-N.jpg","Ryan","7","stims/img/CFD-LF-228-125-N.jpg","Amy","","",""
"","null","fixation","html-keyboard-response","159","598135","0.0-3.0-0.76","27","4","<div style = ""font-size:60px;""> + </div>","null","","","","","","","","","","",""
"","null","learning_trial","html-keyboard-response","160","600642","0.0-3.0-1.76","27","4","
    <div class = 'grid-container'>
        <div class='header-text'> Friends </div>
        <div>
            Grace
            <img width='150' style='border:2px black solid;' src='stims/img/CFD-WF-235-121-N.jpg'>
        </div>
        <div> &nbsp; + &nbsp; </div>
        <div>
            Isabella
            <img width='150' style='border:2px black solid;' src='stims/img/CFD-LF-217-082-N.jpg'>
        </div>
        <div class='header-text'> &nbsp; </div>
    </div>
    ","null","4","true","4","stims/img/CFD-WF-235-121-N.jpg","Grace","5","stims/img/CFD-LF-217-082-N.jpg","Isabella","","",""
"","null","fixation","html-keyboard-response","161","601147","0.0-3.0-0.77","27","4","<div style = ""font-size:60px;""> + </div>","null","","","","","","","","","","",""
"","null","learning_trial","html-keyboard-response","162","603654","0.0-3.0-1.77","27","4","
    <div class = 'grid-container'>
        <div class='header-text'> Friends </div>
        <div>
            Andrew
            <img width='150' style='border:2px black solid;' src='stims/img/CFD-AM-250-149-N.jpg'>
        </div>
        <div> &nbsp; + &nbsp; </div>
        <div>
            Grace
            <img width='150' style='border:2px black solid;' src='stims/img/CFD-WF-235-121-N.jpg'>
        </div>
        <div class='header-text'> &nbsp; </div>
    </div>
    ","null","4","true","2","stims/img/CFD-AM-250-149-N.jpg","Andrew","4","stims/img/CFD-WF-235-121-N.jpg","Grace","","",""
"","null","fixation","html-keyboard-response","163","604160","0.0-3.0-0.78","27","4","<div style = ""font-size:60px;""> + </div>","null","","","","","","","","","","",""
"","null","learning_trial","html-keyboard-response","164","606667","0.0-3.0-1.78","27","4","
    <div class = 'grid-container'>
        <div class='header-text'> Friends </div>
        <div>
            Emma
            <img width='150' style='border:2px black solid;' src='stims/img/CFD-WF-231-099-N.jpg'>
        </div>
        <div> &nbsp; + &nbsp; </div>
        <div>
            Andrew
            <img width='150' style='border:2px black solid;' src='stims/img/CFD-AM-250-149-N.jpg'>
        </div>
        <div class='header-text'> &nbsp; </div>
    </div>
    ","null","4","false","2","stims/img/CFD-AM-250-149-N.jpg","Andrew","3","stims/img/CFD-WF-231-099-N.jpg","Emma","","",""
"","null","fixation","html-keyboard-response","165","607174","0.0-3.0-0.79","27","4","<div style = ""font-size:60px;""> + </div>","null","","","","","","","","","","",""
"","null","learning_trial","html-keyboard-response","166","609680","0.0-3.0-1.79","27","4","
    <div class = 'grid-container'>
        <div class='header-text'> Friends </div>
        <div>
            Emma
            <img width='150' style='border:2px black solid;' src='stims/img/CFD-WF-231-099-N.jpg'>
        </div>
        <div> &nbsp; + &nbsp; </div>
        <div>
            Isabella
            <img width='150' style='border:2px black solid;' src='stims/img/CFD-LF-217-082-N.jpg'>
        </div>
        <div class='header-text'> &nbsp; </div>
    </div>
    ","null","4","true","3","stims/img/CFD-WF-231-099-N.jpg","Emma","5","stims/img/CFD-LF-217-082-N.jpg","Isabella","","",""
"","null","fixation","html-keyboard-response","167","610186","0.0-3.0-0.80","27","4","<div style = ""font-size:60px;""> + </div>","null","","","","","","","","","","",""
"","null","learning_trial","html-keyboard-response","168","612690","0.0-3.0-1.80","27","4","
    <div class = 'grid-container'>
        <div class='header-text'> Friends </div>
        <div>
            Iris
            <img width='150' style='border:2px black solid;' src='stims/img/CFD-AF-252-135-N.jpg'>
        </div>
        <div> &nbsp; + &nbsp; </div>
        <div>
            Justin
            <img width='150' style='border:2px black solid;' src='stims/img/CFD-BM-201-077-N.jpg'>
        </div>
        <div class='header-text'> &nbsp; </div>
    </div>
    ","null","4","true","9","stims/img/CFD-AF-252-135-N.jpg","Iris","11","stims/img/CFD-BM-201-077-N.jpg","Justin","","",""
"","null","fixation","html-keyboard-response","169","613198","0.0-3.0-0.81","27","4","<div style = ""font-size:60px;""> + </div>","null","","","","","","","","","","",""
"","null","learning_trial","html-keyboard-response","170","615705","0.0-3.0-1.81","27","4","
    <div class = 'grid-container'>
        <div class='header-text'> Friends </div>
        <div>
            John
            <img width='150' style='border:2px black solid;' src='stims/img/CFD-WM-237-052-N.jpg'>
        </div>
        <div> &nbsp; + &nbsp; </div>
        <div>
            Daniel
            <img width='150' style='border:2px black solid;' src='stims/img/CFD-LM-211-128-N.jpg'>
        </div>
        <div class='header-text'> &nbsp; </div>
    </div>
    ","null","4","true","1","stims/img/CFD-WM-237-052-N.jpg","John","8","stims/img/CFD-LM-211-128-N.jpg","Daniel","","",""
"","null","fixation","html-keyboard-response","171","616211","0.0-3.0-0.82","27","4","<div style = ""font-size:60px;""> + </div>","null","","","","","","","","","","",""
"","null","learning_trial","html-keyboard-response","172","618718","0.0-3.0-1.82","27","4","
    <div class = 'grid-container'>
        <div class='header-text'> Friends </div>
        <div>
            Emma
            <img width='150' style='border:2px black solid;' src='stims/img/CFD-WF-231-099-N.jpg'>
        </div>
        <div> &nbsp; + &nbsp; </div>
        <div>
            Grace
            <img width='150' style='border:2px black solid;' src='stims/img/CFD-WF-235-121-N.jpg'>
        </div>
        <div class='header-text'> &nbsp; </div>
    </div>
    ","null","4","true","3","stims/img/CFD-WF-231-099-N.jpg","Emma","4","stims/img/CFD-WF-235-121-N.jpg","Grace","","",""
"","null","fixation","html-keyboard-response","173","619224","0.0-3.0-0.83","27","4","<div style = ""font-size:60px;""> + </div>","null","","","","","","","","","","",""
"","null","learning_trial","html-keyboard-response","174","621731","0.0-3.0-1.83","27","4","
    <div class = 'grid-container'>
        <div class='header-text'> Friends </div>
        <div>
            Grace
            <img width='150' style='border:2px black solid;' src='stims/img/CFD-WF-235-121-N.jpg'>
        </div>
        <div> &nbsp; + &nbsp; </div>
        <div>
            Ryan
            <img width='150' style='border:2px black solid;' src='stims/img/CFD-WM-210-057-N.jpg'>
        </div>
        <div class='header-text'> &nbsp; </div>
    </div>
    ","null","4","true","4","stims/img/CFD-WF-235-121-N.jpg","Grace","6","stims/img/CFD-WM-210-057-N.jpg","Ryan","","",""
"","null","fixation","html-keyboard-response","175","622233","0.0-3.0-0.84","27","4","<div style = ""font-size:60px;""> + </div>","null","","","","","","","","","","",""
"","null","learning_trial","html-keyboard-response","176","624740","0.0-3.0-1.84","27","4","
    <div class = 'grid-container'>
        <div class='header-text'> Friends </div>
        <div>
            Daniel
            <img width='150' style='border:2px black solid;' src='stims/img/CFD-LM-211-128-N.jpg'>
        </div>
        <div> &nbsp; + &nbsp; </div>
        <div>
            Iris
            <img width='150' style='border:2px black solid;' src='stims/img/CFD-AF-252-135-N.jpg'>
        </div>
        <div class='header-text'> &nbsp; </div>
    </div>
    ","null","4","true","8","stims/img/CFD-LM-211-128-N.jpg","Daniel","9","stims/img/CFD-AF-252-135-N.jpg","Iris","","",""
"","4624","break","html-keyboard-response","177","629363","0.0-3.0-2.84-0.84","27","4","If you'd like to take a break before continuing, 
    please do so now. <p>To continue, please press the spacebar.</p>"," ","","","","","","","","","","",""
"","null","fixation","html-keyboard-response","178","629869","0.0-3.0-0.85","27","4","<div style = ""font-size:60px;""> + </div>","null","","","","","","","","","","",""
"","null","learning_trial","html-keyboard-response","179","632376","0.0-3.0-1.85","27","4","
    <div class = 'grid-container'>
        <div class='header-text'> Friends </div>
        <div>
            Andrew
            <img width='150' style='border:2px black solid;' src='stims/img/CFD-AM-250-149-N.jpg'>
        </div>
        <div> &nbsp; + &nbsp; </div>
        <div>
            John
            <img width='150' style='border:2px black solid;' src='stims/img/CFD-WM-237-052-N.jpg'>
        </div>
        <div class='header-text'> &nbsp; </div>
    </div>
    ","null","5","false","1","stims/img/CFD-WM-237-052-N.jpg","John","2","stims/img/CFD-AM-250-149-N.jpg","Andrew","","",""
"","null","fixation","html-keyboard-response","180","632883","0.0-3.0-0.86","27","4","<div style = ""font-size:60px;""> + </div>","null","","","","","","","","","","",""
"","null","learning_trial","html-keyboard-response","181","635389","0.0-3.0-1.86","27","4","
    <div class = 'grid-container'>
        <div class='header-text'> Friends </div>
        <div>
            Daniel
            <img width='150' style='border:2px black solid;' src='stims/img/CFD-LM-211-128-N.jpg'>
        </div>
        <div> &nbsp; + &nbsp; </div>
        <div>
            Matthew
            <img width='150' style='border:2px black solid;' src='stims/img/CFD-AM-242-176-N.jpg'>
        </div>
        <div class='header-text'> &nbsp; </div>
    </div>
    ","null","5","true","8","stims/img/CFD-LM-211-128-N.jpg","Daniel","10","stims/img/CFD-AM-242-176-N.jpg","Matthew","","",""
"","null","fixation","html-keyboard-response","182","635895","0.0-3.0-0.87","27","4","<div style = ""font-size:60px;""> + </div>","null","","","","","","","","","","",""
"","null","learning_trial","html-keyboard-response","183","638402","0.0-3.0-1.87","27","4","
    <div class = 'grid-container'>
        <div class='header-text'> Friends </div>
        <div>
            Emma
            <img width='150' style='border:2px black solid;' src='stims/img/CFD-WF-231-099-N.jpg'>
        </div>
        <div> &nbsp; + &nbsp; </div>
        <div>
            Grace
            <img width='150' style='border:2px black solid;' src='stims/img/CFD-WF-235-121-N.jpg'>
        </div>
        <div class='header-text'> &nbsp; </div>
    </div>
    ","null","5","true","3","stims/img/CFD-WF-231-099-N.jpg","Emma","4","stims/img/CFD-WF-235-121-N.jpg","Grace","","",""
"","null","fixation","html-keyboard-response","184","638908","0.0-3.0-0.88","27","4","<div style = ""font-size:60px;""> + </div>","null","","","","","","","","","","",""
"","null","learning_trial","html-keyboard-response","185","641416","0.0-3.0-1.88","27","4","
    <div class = 'grid-container'>
        <div class='header-text'> Friends </div>
        <div>
            Justin
            <img width='150' style='border:2px black solid;' src='stims/img/CFD-BM-201-077-N.jpg'>
        </div>
        <div> &nbsp; + &nbsp; </div>
        <div>
            Brianna
            <img width='150' style='border:2px black solid;' src='stims/img/CFD-BF-244-231-N.jpg'>
        </div>
        <div class='header-text'> &nbsp; </div>
    </div>
    ","null","5","true","11","stims/img/CFD-BM-201-077-N.jpg","Justin","12","stims/img/CFD-BF-244-231-N.jpg","Brianna","","",""
"","null","fixation","html-keyboard-response","186","641921","0.0-3.0-0.89","27","4","<div style = ""font-size:60px;""> + </div>","null","","","","","","","","","","",""
"","null","learning_trial","html-keyboard-response","187","644425","0.0-3.0-1.89","27","4","
    <div class = 'grid-container'>
        <div class='header-text'> Friends </div>
        <div>
            Brianna
            <img width='150' style='border:2px black solid;' src='stims/img/CFD-BF-244-231-N.jpg'>
        </div>
        <div> &nbsp; + &nbsp; </div>
        <div>
            Matthew
            <img width='150' style='border:2px black solid;' src='stims/img/CFD-AM-242-176-N.jpg'>
        </div>
        <div class='header-text'> &nbsp; </div>
    </div>
    ","null","5","false","10","stims/img/CFD-AM-242-176-N.jpg","Matthew","12","stims/img/CFD-BF-244-231-N.jpg","Brianna","","",""
"","null","fixation","html-keyboard-response","188","644930","0.0-3.0-0.90","27","4","<div style = ""font-size:60px;""> + </div>","null","","","","","","","","","","",""
"","null","learning_trial","html-keyboard-response","189","647438","0.0-3.0-1.90","27","4","
    <div class = 'grid-container'>
        <div class='header-text'> Friends </div>
        <div>
            Amy
            <img width='150' style='border:2px black solid;' src='stims/img/CFD-LF-228-125-N.jpg'>
        </div>
        <div> &nbsp; + &nbsp; </div>
        <div>
            Isabella
            <img width='150' style='border:2px black solid;' src='stims/img/CFD-LF-217-082-N.jpg'>
        </div>
        <div class='header-text'> &nbsp; </div>
    </div>
    ","null","5","false","5","stims/img/CFD-LF-217-082-N.jpg","Isabella","7","stims/img/CFD-LF-228-125-N.jpg","Amy","","",""
"","null","fixation","html-keyboard-response","190","647946","0.0-3.0-0.91","27","4","<div style = ""font-size:60px;""> + </div>","null","","","","","","","","","","",""
"","null","learning_trial","html-keyboard-response","191","650452","0.0-3.0-1.91","27","4","
    <div class = 'grid-container'>
        <div class='header-text'> Friends </div>
        <div>
            Ryan
            <img width='150' style='border:2px black solid;' src='stims/img/CFD-WM-210-057-N.jpg'>
        </div>
        <div> &nbsp; + &nbsp; </div>
        <div>
            Grace
            <img width='150' style='border:2px black solid;' src='stims/img/CFD-WF-235-121-N.jpg'>
        </div>
        <div class='header-text'> &nbsp; </div>
    </div>
    ","null","5","false","4","stims/img/CFD-WF-235-121-N.jpg","Grace","6","stims/img/CFD-WM-210-057-N.jpg","Ryan","","",""
"","null","fixation","html-keyboard-response","192","650958","0.0-3.0-0.92","27","4","<div style = ""font-size:60px;""> + </div>","null","","","","","","","","","","",""
"","null","learning_trial","html-keyboard-response","193","653465","0.0-3.0-1.92","27","4","
    <div class = 'grid-container'>
        <div class='header-text'> Friends </div>
        <div>
            Isabella
            <img width='150' style='border:2px black solid;' src='stims/img/CFD-LF-217-082-N.jpg'>
        </div>
        <div> &nbsp; + &nbsp; </div>
        <div>
            Emma
            <img width='150' style='border:2px black solid;' src='stims/img/CFD-WF-231-099-N.jpg'>
        </div>
        <div class='header-text'> &nbsp; </div>
    </div>
    ","null","5","false","3","stims/img/CFD-WF-231-099-N.jpg","Emma","5","stims/img/CFD-LF-217-082-N.jpg","Isabella","","",""
"","null","fixation","html-keyboard-response","194","653968","0.0-3.0-0.93","27","4","<div style = ""font-size:60px;""> + </div>","null","","","","","","","","","","",""
"","null","learning_trial","html-keyboard-response","195","656476","0.0-3.0-1.93","27","4","
    <div class = 'grid-container'>
        <div class='header-text'> Friends </div>
        <div>
            Justin
            <img width='150' style='border:2px black solid;' src='stims/img/CFD-BM-201-077-N.jpg'>
        </div>
        <div> &nbsp; + &nbsp; </div>
        <div>
            Michael
            <img width='150' style='border:2px black solid;' src='stims/img/CFD-BM-226-276-N.jpg'>
        </div>
        <div class='header-text'> &nbsp; </div>
    </div>
    ","null","5","true","11","stims/img/CFD-BM-201-077-N.jpg","Justin","13","stims/img/CFD-BM-226-276-N.jpg","Michael","","",""
"","null","fixation","html-keyboard-response","196","656982","0.0-3.0-0.94","27","4","<div style = ""font-size:60px;""> + </div>","null","","","","","","","","","","",""
"","null","learning_trial","html-keyboard-response","197","659484","0.0-3.0-1.94","27","4","
    <div class = 'grid-container'>
        <div class='header-text'> Friends </div>
        <div>
            Isabella
            <img width='150' style='border:2px black solid;' src='stims/img/CFD-LF-217-082-N.jpg'>
        </div>
        <div> &nbsp; + &nbsp; </div>
        <div>
            Grace
            <img width='150' style='border:2px black solid;' src='stims/img/CFD-WF-235-121-N.jpg'>
        </div>
        <div class='header-text'> &nbsp; </div>
    </div>
    ","null","5","false","4","stims/img/CFD-WF-235-121-N.jpg","Grace","5","stims/img/CFD-LF-217-082-N.jpg","Isabella","","",""
"","null","fixation","html-keyboard-response","198","659986","0.0-3.0-0.95","27","4","<div style = ""font-size:60px;""> + </div>","null","","","","","","","","","","",""
"","null","learning_trial","html-keyboard-response","199","662488","0.0-3.0-1.95","27","4","
    <div class = 'grid-container'>
        <div class='header-text'> Friends </div>
        <div>
            Iris
            <img width='150' style='border:2px black solid;' src='stims/img/CFD-AF-252-135-N.jpg'>
        </div>
        <div> &nbsp; + &nbsp; </div>
        <div>
            Daniel
            <img width='150' style='border:2px black solid;' src='stims/img/CFD-LM-211-128-N.jpg'>
        </div>
        <div class='header-text'> &nbsp; </div>
    </div>
    ","null","5","false","8","stims/img/CFD-LM-211-128-N.jpg","Daniel","9","stims/img/CFD-AF-252-135-N.jpg","Iris","","",""
"","null","fixation","html-keyboard-response","200","662994","0.0-3.0-0.96","27","4","<div style = ""font-size:60px;""> + </div>","null","","","","","","","","","","",""
"","null","learning_trial","html-keyboard-response","201","665501","0.0-3.0-1.96","27","4","
    <div class = 'grid-container'>
        <div class='header-text'> Friends </div>
        <div>
            Daniel
            <img width='150' style='border:2px black solid;' src='stims/img/CFD-LM-211-128-N.jpg'>
        </div>
        <div> &nbsp; + &nbsp; </div>
        <div>
            John
            <img width='150' style='border:2px black solid;' src='stims/img/CFD-WM-237-052-N.jpg'>
        </div>
        <div class='header-text'> &nbsp; </div>
    </div>
    ","null","5","false","1","stims/img/CFD-WM-237-052-N.jpg","John","8","stims/img/CFD-LM-211-128-N.jpg","Daniel","","",""
"","null","fixation","html-keyboard-response","202","666006","0.0-3.0-0.97","27","4","<div style = ""font-size:60px;""> + </div>","null","","","","","","","","","","",""
"","null","learning_trial","html-keyboard-response","203","668513","0.0-3.0-1.97","27","4","
    <div class = 'grid-container'>
        <div class='header-text'> Friends </div>
        <div>
            Brianna
            <img width='150' style='border:2px black solid;' src='stims/img/CFD-BF-244-231-N.jpg'>
        </div>
        <div> &nbsp; + &nbsp; </div>
        <div>
            Michael
            <img width='150' style='border:2px black solid;' src='stims/img/CFD-BM-226-276-N.jpg'>
        </div>
        <div class='header-text'> &nbsp; </div>
    </div>
    ","null","5","true","12","stims/img/CFD-BF-244-231-N.jpg","Brianna","13","stims/img/CFD-BM-226-276-N.jpg","Michael","","",""
"","null","fixation","html-keyboard-response","204","669020","0.0-3.0-0.98","27","4","<div style = ""font-size:60px;""> + </div>","null","","","","","","","","","","",""
"","null","learning_trial","html-keyboard-response","205","671526","0.0-3.0-1.98","27","4","
    <div class = 'grid-container'>
        <div class='header-text'> Friends </div>
        <div>
            Justin
            <img width='150' style='border:2px black solid;' src='stims/img/CFD-BM-201-077-N.jpg'>
        </div>
        <div> &nbsp; + &nbsp; </div>
        <div>
            Iris
            <img width='150' style='border:2px black solid;' src='stims/img/CFD-AF-252-135-N.jpg'>
        </div>
        <div class='header-text'> &nbsp; </div>
    </div>
    ","null","5","false","9","stims/img/CFD-AF-252-135-N.jpg","Iris","11","stims/img/CFD-BM-201-077-N.jpg","Justin","","",""
"","null","fixation","html-keyboard-response","206","672033","0.0-3.0-0.99","27","4","<div style = ""font-size:60px;""> + </div>","null","","","","","","","","","","",""
"","null","learning_trial","html-keyboard-response","207","674539","0.0-3.0-1.99","27","4","
    <div class = 'grid-container'>
        <div class='header-text'> Friends </div>
        <div>
            Grace
            <img width='150' style='border:2px black solid;' src='stims/img/CFD-WF-235-121-N.jpg'>
        </div>
        <div> &nbsp; + &nbsp; </div>
        <div>
            Andrew
            <img width='150' style='border:2px black solid;' src='stims/img/CFD-AM-250-149-N.jpg'>
        </div>
        <div class='header-text'> &nbsp; </div>
    </div>
    ","null","5","false","2","stims/img/CFD-AM-250-149-N.jpg","Andrew","4","stims/img/CFD-WF-235-121-N.jpg","Grace","","",""
"","null","fixation","html-keyboard-response","208","675045","0.0-3.0-0.100","27","4","<div style = ""font-size:60px;""> + </div>","null","","","","","","","","","","",""
"","null","learning_trial","html-keyboard-response","209","677550","0.0-3.0-1.100","27","4","
    <div class = 'grid-container'>
        <div class='header-text'> Friends </div>
        <div>
            Amy
            <img width='150' style='border:2px black solid;' src='stims/img/CFD-LF-228-125-N.jpg'>
        </div>
        <div> &nbsp; + &nbsp; </div>
        <div>
            Ryan
            <img width='150' style='border:2px black solid;' src='stims/img/CFD-WM-210-057-N.jpg'>
        </div>
        <div class='header-text'> &nbsp; </div>
    </div>
    ","null","5","false","6","stims/img/CFD-WM-210-057-N.jpg","Ryan","7","stims/img/CFD-LF-228-125-N.jpg","Amy","","",""
"","null","fixation","html-keyboard-response","210","678057","0.0-3.0-0.101","27","4","<div style = ""font-size:60px;""> + </div>","null","","","","","","","","","","",""
"","null","learning_trial","html-keyboard-response","211","680561","0.0-3.0-1.101","27","4","
    <div class = 'grid-container'>
        <div class='header-text'> Friends </div>
        <div>
            Emma
            <img width='150' style='border:2px black solid;' src='stims/img/CFD-WF-231-099-N.jpg'>
        </div>
        <div> &nbsp; + &nbsp; </div>
        <div>
            Andrew
            <img width='150' style='border:2px black solid;' src='stims/img/CFD-AM-250-149-N.jpg'>
        </div>
        <div class='header-text'> &nbsp; </div>
    </div>
    ","null","5","false","2","stims/img/CFD-AM-250-149-N.jpg","Andrew","3","stims/img/CFD-WF-231-099-N.jpg","Emma","","",""
"","4499","break","html-keyboard-response","212","685063","0.0-3.0-2.101-0.101","27","4","If you'd like to take a break before continuing, 
    please do so now. <p>To continue, please press the spacebar.</p>"," ","","","","","","","","","","",""
"","null","fixation","html-keyboard-response","213","685569","0.0-3.0-0.102","27","4","<div style = ""font-size:60px;""> + </div>","null","","","","","","","","","","",""
"","null","learning_trial","html-keyboard-response","214","688076","0.0-3.0-1.102","27","4","
    <div class = 'grid-container'>
        <div class='header-text'> Friends </div>
        <div>
            Justin
            <img width='150' style='border:2px black solid;' src='stims/img/CFD-BM-201-077-N.jpg'>
        </div>
        <div> &nbsp; + &nbsp; </div>
        <div>
            Iris
            <img width='150' style='border:2px black solid;' src='stims/img/CFD-AF-252-135-N.jpg'>
        </div>
        <div class='header-text'> &nbsp; </div>
    </div>
    ","null","6","false","9","stims/img/CFD-AF-252-135-N.jpg","Iris","11","stims/img/CFD-BM-201-077-N.jpg","Justin","","",""
"","null","fixation","html-keyboard-response","215","688582","0.0-3.0-0.103","27","4","<div style = ""font-size:60px;""> + </div>","null","","","","","","","","","","",""
"","null","learning_trial","html-keyboard-response","216","691089","0.0-3.0-1.103","27","4","
    <div class = 'grid-container'>
        <div class='header-text'> Friends </div>
        <div>
            Daniel
            <img width='150' style='border:2px black solid;' src='stims/img/CFD-LM-211-128-N.jpg'>
        </div>
        <div> &nbsp; + &nbsp; </div>
        <div>
            Iris
            <img width='150' style='border:2px black solid;' src='stims/img/CFD-AF-252-135-N.jpg'>
        </div>
        <div class='header-text'> &nbsp; </div>
    </div>
    ","null","6","true","8","stims/img/CFD-LM-211-128-N.jpg","Daniel","9","stims/img/CFD-AF-252-135-N.jpg","Iris","","",""
"","null","fixation","html-keyboard-response","217","691595","0.0-3.0-0.104","27","4","<div style = ""font-size:60px;""> + </div>","null","","","","","","","","","","",""
"","null","learning_trial","html-keyboard-response","218","694103","0.0-3.0-1.104","27","4","
    <div class = 'grid-container'>
        <div class='header-text'> Friends </div>
        <div>
            John
            <img width='150' style='border:2px black solid;' src='stims/img/CFD-WM-237-052-N.jpg'>
        </div>
        <div> &nbsp; + &nbsp; </div>
        <div>
            Andrew
            <img width='150' style='border:2px black solid;' src='stims/img/CFD-AM-250-149-N.jpg'>
        </div>
        <div class='header-text'> &nbsp; </div>
    </div>
    ","null","6","true","1","stims/img/CFD-WM-237-052-N.jpg","John","2","stims/img/CFD-AM-250-149-N.jpg","Andrew","","",""
"","null","fixation","html-keyboard-response","219","694609","0.0-3.0-0.105","27","4","<div style = ""font-size:60px;""> + </div>","null","","","","","","","","","","",""
"","null","learning_trial","html-keyboard-response","220","697116","0.0-3.0-1.105","27","4","
    <div class = 'grid-container'>
        <div class='header-text'> Friends </div>
        <div>
            Emma
            <img width='150' style='border:2px black solid;' src='stims/img/CFD-WF-231-099-N.jpg'>
        </div>
        <div> &nbsp; + &nbsp; </div>
        <div>
            Grace
            <img width='150' style='border:2px black solid;' src='stims/img/CFD-WF-235-121-N.jpg'>
        </div>
        <div class='header-text'> &nbsp; </div>
    </div>
    ","null","6","true","3","stims/img/CFD-WF-231-099-N.jpg","Emma","4","stims/img/CFD-WF-235-121-N.jpg","Grace","","",""
"","null","fixation","html-keyboard-response","221","697622","0.0-3.0-0.106","27","4","<div style = ""font-size:60px;""> + </div>","null","","","","","","","","","","",""
"","null","learning_trial","html-keyboard-response","222","700129","0.0-3.0-1.106","27","4","
    <div class = 'grid-container'>
        <div class='header-text'> Friends </div>
        <div>
            Matthew
            <img width='150' style='border:2px black solid;' src='stims/img/CFD-AM-242-176-N.jpg'>
        </div>
        <div> &nbsp; + &nbsp; </div>
        <div>
            Daniel
            <img width='150' style='border:2px black solid;' src='stims/img/CFD-LM-211-128-N.jpg'>
        </div>
        <div class='header-text'> &nbsp; </div>
    </div>
    ","null","6","false","8","stims/img/CFD-LM-211-128-N.jpg","Daniel","10","stims/img/CFD-AM-242-176-N.jpg","Matthew","","",""
"","null","fixation","html-keyboard-response","223","700635","0.0-3.0-0.107","27","4","<div style = ""font-size:60px;""> + </div>","null","","","","","","","","","","",""
"","null","learning_trial","html-keyboard-response","224","703142","0.0-3.0-1.107","27","4","
    <div class = 'grid-container'>
        <div class='header-text'> Friends </div>
        <div>
            Amy
            <img width='150' style='border:2px black solid;' src='stims/img/CFD-LF-228-125-N.jpg'>
        </div>
        <div> &nbsp; + &nbsp; </div>
        <div>
            Isabella
            <img width='150' style='border:2px black solid;' src='stims/img/CFD-LF-217-082-N.jpg'>
        </div>
        <div class='header-text'> &nbsp; </div>
    </div>
    ","null","6","false","5","stims/img/CFD-LF-217-082-N.jpg","Isabella","7","stims/img/CFD-LF-228-125-N.jpg","Amy","","",""
"","null","fixation","html-keyboard-response","225","703649","0.0-3.0-0.108","27","4","<div style = ""font-size:60px;""> + </div>","null","","","","","","","","","","",""
"","null","learning_trial","html-keyboard-response","226","706156","0.0-3.0-1.108","27","4","
    <div class = 'grid-container'>
        <div class='header-text'> Friends </div>
        <div>
            Justin
            <img width='150' style='border:2px black solid;' src='stims/img/CFD-BM-201-077-N.jpg'>
        </div>
        <div> &nbsp; + &nbsp; </div>
        <div>
            Brianna
            <img width='150' style='border:2px black solid;' src='stims/img/CFD-BF-244-231-N.jpg'>
        </div>
        <div class='header-text'> &nbsp; </div>
    </div>
    ","null","6","true","11","stims/img/CFD-BM-201-077-N.jpg","Justin","12","stims/img/CFD-BF-244-231-N.jpg","Brianna","","",""
"","null","fixation","html-keyboard-response","227","706662","0.0-3.0-0.109","27","4","<div style = ""font-size:60px;""> + </div>","null","","","","","","","","","","",""
"","null","learning_trial","html-keyboard-response","228","709169","0.0-3.0-1.109","27","4","
    <div class = 'grid-container'>
        <div class='header-text'> Friends </div>
        <div>
            Michael
            <img width='150' style='border:2px black solid;' src='stims/img/CFD-BM-226-276-N.jpg'>
        </div>
        <div> &nbsp; + &nbsp; </div>
        <div>
            Justin
            <img width='150' style='border:2px black solid;' src='stims/img/CFD-BM-201-077-N.jpg'>
        </div>
        <div class='header-text'> &nbsp; </div>
    </div>
    ","null","6","false","11","stims/img/CFD-BM-201-077-N.jpg","Justin","13","stims/img/CFD-BM-226-276-N.jpg","Michael","","",""
"","null","fixation","html-keyboard-response","229","709676","0.0-3.0-0.110","27","4","<div style = ""font-size:60px;""> + </div>","null","","","","","","","","","","",""
"","null","learning_trial","html-keyboard-response","230","712182","0.0-3.0-1.110","27","4","
    <div class = 'grid-container'>
        <div class='header-text'> Friends </div>
        <div>
            Amy
            <img width='150' style='border:2px black solid;' src='stims/img/CFD-LF-228-125-N.jpg'>
        </div>
        <div> &nbsp; + &nbsp; </div>
        <div>
            Ryan
            <img width='150' style='border:2px black solid;' src='stims/img/CFD-WM-210-057-N.jpg'>
        </div>
        <div class='header-text'> &nbsp; </div>
    </div>
    ","null","6","false","6","stims/img/CFD-WM-210-057-N.jpg","Ryan","7","stims/img/CFD-LF-228-125-N.jpg","Amy","","",""
"","null","fixation","html-keyboard-response","231","712688","0.0-3.0-0.111","27","4","<div style = ""font-size:60px;""> + </div>","null","","","","","","","","","","",""
"","null","learning_trial","html-keyboard-response","232","715195","0.0-3.0-1.111","27","4","
    <div class = 'grid-container'>
        <div class='header-text'> Friends </div>
        <div>
            Daniel
            <img width='150' style='border:2px black solid;' src='stims/img/CFD-LM-211-128-N.jpg'>
        </div>
        <div> &nbsp; + &nbsp; </div>
        <div>
            John
            <img width='150' style='border:2px black solid;' src='stims/img/CFD-WM-237-052-N.jpg'>
        </div>
        <div class='header-text'> &nbsp; </div>
    </div>
    ","null","6","false","1","stims/img/CFD-WM-237-052-N.jpg","John","8","stims/img/CFD-LM-211-128-N.jpg","Daniel","","",""
"","null","fixation","html-keyboard-response","233","715702","0.0-3.0-0.112","27","4","<div style = ""font-size:60px;""> + </div>","null","","","","","","","","","","",""
"","null","learning_trial","html-keyboard-response","234","718204","0.0-3.0-1.112","27","4","
    <div class = 'grid-container'>
        <div class='header-text'> Friends </div>
        <div>
            Brianna
            <img width='150' style='border:2px black solid;' src='stims/img/CFD-BF-244-231-N.jpg'>
        </div>
        <div> &nbsp; + &nbsp; </div>
        <div>
            Michael
            <img width='150' style='border:2px black solid;' src='stims/img/CFD-BM-226-276-N.jpg'>
        </div>
        <div class='header-text'> &nbsp; </div>
    </div>
    ","null","6","true","12","stims/img/CFD-BF-244-231-N.jpg","Brianna","13","stims/img/CFD-BM-226-276-N.jpg","Michael","","",""
