"view_history","rt","trial_purpose","trial_type","trial_index","time_elapsed","internal_node_id","sub_id","bonus","stimulus","response","rep","display_left","from_id","from_face","from_name","to_id","to_face","to_name","friendship","correct","slider_start"
"[{""page_index"":0,""viewing_time"":57175}]","57175","confirm_correct","instructions","0","57175","0.0-0.0","4","3","","","","","","","","","","","","",""
"[{""page_index"":0,""viewing_time"":5761},{""page_index"":1,""viewing_time"":7968},{""page_index"":2,""viewing_time"":1517},{""page_index"":1,""viewing_time"":9050},{""page_index"":2,""viewing_time"":5533}]","29829","instructions","instructions","1","87007","0.0-1.0","4","3","","","","","","","","","","","","",""
"[{""page_index"":0,""viewing_time"":3847},{""page_index"":1,""viewing_time"":4866},{""page_index"":2,""viewing_time"":16051},{""page_index"":3,""viewing_time"":4983}]","29748","instructions","instructions","2","116756","0.0-2.0","4","3","","","","","","","","","","","","",""
"","null","fixation","html-keyboard-response","3","117265","0.0-3.0-0.0","4","3","<div style = ""font-size:60px;""> + </div>","null","","","","","","","","","","",""
"","null","learning_trial","html-keyboard-response","4","119774","0.0-3.0-1.0","4","3","
    <div class = 'grid-container'>
        <div class='header-text'> Friends </div>
        <div>
            Leslie
            <img width='150' style='border:2px black solid;' src='stims/img/CFD-LF-225-164-N.jpg'>
        </div>
        <div> &nbsp; + &nbsp; </div>
        <div>
            Anthony
            <img width='150' style='border:2px black solid;' src='stims/img/CFD-WM-231-112-N.jpg'>
        </div>
        <div class='header-text'> &nbsp; </div>
    </div>
    ","null","0","true","5","stims/img/CFD-LF-225-164-N.jpg","Leslie","7","stims/img/CFD-WM-231-112-N.jpg","Anthony","","",""
"","null","fixation","html-keyboard-response","5","120281","0.0-3.0-0.1","4","3","<div style = ""font-size:60px;""> + </div>","null","","","","","","","","","","",""
"","null","learning_trial","html-keyboard-response","6","122790","0.0-3.0-1.1","4","3","
    <div class = 'grid-container'>
        <div class='header-text'> Friends </div>
        <div>
            Anna
            <img width='150' style='border:2px black solid;' src='stims/img/CFD-WF-214-122-N.jpg'>
        </div>
        <div> &nbsp; + &nbsp; </div>
        <div>
            David
            <img width='150' style='border:2px black solid;' src='stims/img/CFD-BM-201-077-N.jpg'>
        </div>
        <div class='header-text'> &nbsp; </div>
    </div>
    ","null","0","true","8","stims/img/CFD-WF-214-122-N.jpg","Anna","10","stims/img/CFD-BM-201-077-N.jpg","David","","",""
"","null","fixation","html-keyboard-response","7","123296","0.0-3.0-0.2","4","3","<div style = ""font-size:60px;""> + </div>","null","","","","","","","","","","",""
"","null","learning_trial","html-keyboard-response","8","125804","0.0-3.0-1.2","4","3","
    <div class = 'grid-container'>
        <div class='header-text'> Friends </div>
        <div>
            Evan
            <img width='150' style='border:2px black solid;' src='stims/img/CFD-AM-201-076-N.jpg'>
        </div>
        <div> &nbsp; + &nbsp; </div>
        <div>
            Leah
            <img width='150' style='border:2px black solid;' src='stims/img/CFD-BF-210-130-N.jpg'>
        </div>
        <div class='header-text'> &nbsp; </div>
    </div>
    ","null","0","false","11","stims/img/CFD-BF-210-130-N.jpg","Leah","13","stims/img/CFD-AM-201-076-N.jpg","Evan","","",""
"","null","fixation","html-keyboard-response","9","126311","0.0-3.0-0.3","4","3","<div style = ""font-size:60px;""> + </div>","null","","","","","","","","","","",""
"","null","learning_trial","html-keyboard-response","10","128818","0.0-3.0-1.3","4","3","
    <div class = 'grid-container'>
        <div class='header-text'> Friends </div>
        <div>
            Jacob
            <img width='150' style='border:2px black solid;' src='stims/img/CFD-LM-211-128-N.jpg'>
        </div>
        <div> &nbsp; + &nbsp; </div>
        <div>
            Sophia
            <img width='150' style='border:2px black solid;' src='stims/img/CFD-WF-212-050-N.jpg'>
        </div>
        <div class='header-text'> &nbsp; </div>
    </div>
    ","null","0","true","4","stims/img/CFD-LM-211-128-N.jpg","Jacob","6","stims/img/CFD-WF-212-050-N.jpg","Sophia","","",""
"","null","fixation","html-keyboard-response","11","129325","0.0-3.0-0.4","4","3","<div style = ""font-size:60px;""> + </div>","null","","","","","","","","","","",""
"","null","learning_trial","html-keyboard-response","12","131832","0.0-3.0-1.4","4","3","
    <div class = 'grid-container'>
        <div class='header-text'> Friends </div>
        <div>
            Leah
            <img width='150' style='border:2px black solid;' src='stims/img/CFD-BF-210-130-N.jpg'>
        </div>
        <div> &nbsp; + &nbsp; </div>
        <div>
            Elaine
            <img width='150' style='border:2px black solid;' src='stims/img/CFD-AF-250-200-N.jpg'>
        </div>
        <div class='header-text'> &nbsp; </div>
    </div>
    ","null","0","false","9","stims/img/CFD-AF-250-200-N.jpg","Elaine","11","stims/img/CFD-BF-210-130-N.jpg","Leah","","",""
"","null","fixation","html-keyboard-response","13","132340","0.0-3.0-0.5","4","3","<div style = ""font-size:60px;""> + </div>","null","","","","","","","","","","",""
"","null","learning_trial","html-keyboard-response","14","134848","0.0-3.0-1.5","4","3","
    <div class = 'grid-container'>
        <div class='header-text'> Friends </div>
        <div>
            Alexander
            <img width='150' style='border:2px black solid;' src='stims/img/CFD-LM-247-095-N.jpg'>
        </div>
        <div> &nbsp; + &nbsp; </div>
        <div>
            David
            <img width='150' style='border:2px black solid;' src='stims/img/CFD-BM-201-077-N.jpg'>
        </div>
        <div class='header-text'> &nbsp; </div>
    </div>
    ","null","0","false","10","stims/img/CFD-BM-201-077-N.jpg","David","12","stims/img/CFD-LM-247-095-N.jpg","Alexander","","",""
"","null","fixation","html-keyboard-response","15","135356","0.0-3.0-0.6","4","3","<div style = ""font-size:60px;""> + </div>","null","","","","","","","","","","",""
"","null","learning_trial","html-keyboard-response","16","137863","0.0-3.0-1.6","4","3","
    <div class = 'grid-container'>
        <div class='header-text'> Friends </div>
        <div>
            Alexander
            <img width='150' style='border:2px black solid;' src='stims/img/CFD-LM-247-095-N.jpg'>
        </div>
        <div> &nbsp; + &nbsp; </div>
        <div>
            Evan
            <img width='150' style='border:2px black solid;' src='stims/img/CFD-AM-201-076-N.jpg'>
        </div>
        <div class='header-text'> &nbsp; </div>
    </div>
    ","null","0","true","12","stims/img/CFD-LM-247-095-N.jpg","Alexander","13","stims/img/CFD-AM-201-076-N.jpg","Evan","","",""
"","null","fixation","html-keyboard-response","17","138369","0.0-3.0-0.7","4","3","<div style = ""font-size:60px;""> + </div>","null","","","","","","","","","","",""
"","null","learning_trial","html-keyboard-response","18","140877","0.0-3.0-1.7","4","3","
    <div class = 'grid-container'>
        <div class='header-text'> Friends </div>
        <div>
            Jasmine
            <img width='150' style='border:2px black solid;' src='stims/img/CFD-AF-211-066-N.jpg'>
        </div>
        <div> &nbsp; + &nbsp; </div>
        <div>
            Jacob
            <img width='150' style='border:2px black solid;' src='stims/img/CFD-LM-211-128-N.jpg'>
        </div>
        <div class='header-text'> &nbsp; </div>
    </div>
    ","null","0","true","3","stims/img/CFD-AF-211-066-N.jpg","Jasmine","4","stims/img/CFD-LM-211-128-N.jpg","Jacob","","",""
"","null","fixation","html-keyboard-response","19","141384","0.0-3.0-0.8","4","3","<div style = ""font-size:60px;""> + </div>","null","","","","","","","","","","",""
"","null","learning_trial","html-keyboard-response","20","143891","0.0-3.0-1.8","4","3","
    <div class = 'grid-container'>
        <div class='header-text'> Friends </div>
        <div>
            Leslie
            <img width='150' style='border:2px black solid;' src='stims/img/CFD-LF-225-164-N.jpg'>
        </div>
        <div> &nbsp; + &nbsp; </div>
        <div>
            Jacob
            <img width='150' style='border:2px black solid;' src='stims/img/CFD-LM-211-128-N.jpg'>
        </div>
        <div class='header-text'> &nbsp; </div>
    </div>
    ","null","0","false","4","stims/img/CFD-LM-211-128-N.jpg","Jacob","5","stims/img/CFD-LF-225-164-N.jpg","Leslie","","",""
"","null","fixation","html-keyboard-response","21","144397","0.0-3.0-0.9","4","3","<div style = ""font-size:60px;""> + </div>","null","","","","","","","","","","",""
"","null","learning_trial","html-keyboard-response","22","146904","0.0-3.0-1.9","4","3","
    <div class = 'grid-container'>
        <div class='header-text'> Friends </div>
        <div>
            Leslie
            <img width='150' style='border:2px black solid;' src='stims/img/CFD-LF-225-164-N.jpg'>
        </div>
        <div> &nbsp; + &nbsp; </div>
        <div>
            Jasmine
            <img width='150' style='border:2px black solid;' src='stims/img/CFD-AF-211-066-N.jpg'>
        </div>
        <div class='header-text'> &nbsp; </div>
    </div>
    ","null","0","false","3","stims/img/CFD-AF-211-066-N.jpg","Jasmine","5","stims/img/CFD-LF-225-164-N.jpg","Leslie","","",""
"","null","fixation","html-keyboard-response","23","147409","0.0-3.0-0.10","4","3","<div style = ""font-size:60px;""> + </div>","null","","","","","","","","","","",""
"","null","learning_trial","html-keyboard-response","24","149916","0.0-3.0-1.10","4","3","
    <div class = 'grid-container'>
        <div class='header-text'> Friends </div>
        <div>
            Elaine
            <img width='150' style='border:2px black solid;' src='stims/img/CFD-AF-250-200-N.jpg'>
        </div>
        <div> &nbsp; + &nbsp; </div>
        <div>
            Anna
            <img width='150' style='border:2px black solid;' src='stims/img/CFD-WF-214-122-N.jpg'>
        </div>
        <div class='header-text'> &nbsp; </div>
    </div>
    ","null","0","false","8","stims/img/CFD-WF-214-122-N.jpg","Anna","9","stims/img/CFD-AF-250-200-N.jpg","Elaine","","",""
"","null","fixation","html-keyboard-response","25","150423","0.0-3.0-0.11","4","3","<div style = ""font-size:60px;""> + </div>","null","","","","","","","","","","",""
"","null","learning_trial","html-keyboard-response","26","152929","0.0-3.0-1.11","4","3","
    <div class = 'grid-container'>
        <div class='header-text'> Friends </div>
        <div>
            Sophia
            <img width='150' style='border:2px black solid;' src='stims/img/CFD-WF-212-050-N.jpg'>
        </div>
        <div> &nbsp; + &nbsp; </div>
        <div>
            Anthony
            <img width='150' style='border:2px black solid;' src='stims/img/CFD-WM-231-112-N.jpg'>
        </div>
        <div class='header-text'> &nbsp; </div>
    </div>
    ","null","0","true","6","stims/img/CFD-WF-212-050-N.jpg","Sophia","7","stims/img/CFD-WM-231-112-N.jpg","Anthony","","",""
"","null","fixation","html-keyboard-response","27","153436","0.0-3.0-0.12","4","3","<div style = ""font-size:60px;""> + </div>","null","","","","","","","","","","",""
"","null","learning_trial","html-keyboard-response","28","155943","0.0-3.0-1.12","4","3","
    <div class = 'grid-container'>
        <div class='header-text'> Friends </div>
        <div>
            Anna
            <img width='150' style='border:2px black solid;' src='stims/img/CFD-WF-214-122-N.jpg'>
        </div>
        <div> &nbsp; + &nbsp; </div>
        <div>
            Amir
            <img width='150' style='border:2px black solid;' src='stims/img/CFD-BM-237-188-N.jpg'>
        </div>
        <div class='header-text'> &nbsp; </div>
    </div>
    ","null","0","false","1","stims/img/CFD-BM-237-188-N.jpg","Amir","8","stims/img/CFD-WF-214-122-N.jpg","Anna","","",""
"","null","fixation","html-keyboard-response","29","156450","0.0-3.0-0.13","4","3","<div style = ""font-size:60px;""> + </div>","null","","","","","","","","","","",""
"","null","learning_trial","html-keyboard-response","30","158955","0.0-3.0-1.13","4","3","
    <div class = 'grid-container'>
        <div class='header-text'> Friends </div>
        <div>
            Arianna
            <img width='150' style='border:2px black solid;' src='stims/img/CFD-LF-219-223-N.jpg'>
        </div>
        <div> &nbsp; + &nbsp; </div>
        <div>
            Jasmine
            <img width='150' style='border:2px black solid;' src='stims/img/CFD-AF-211-066-N.jpg'>
        </div>
        <div class='header-text'> &nbsp; </div>
    </div>
    ","null","0","true","2","stims/img/CFD-LF-219-223-N.jpg","Arianna","3","stims/img/CFD-AF-211-066-N.jpg","Jasmine","","",""
"","null","fixation","html-keyboard-response","31","159461","0.0-3.0-0.14","4","3","<div style = ""font-size:60px;""> + </div>","null","","","","","","","","","","",""
"","null","learning_trial","html-keyboard-response","32","161969","0.0-3.0-1.14","4","3","
    <div class = 'grid-container'>
        <div class='header-text'> Friends </div>
        <div>
            Jacob
            <img width='150' style='border:2px black solid;' src='stims/img/CFD-LM-211-128-N.jpg'>
        </div>
        <div> &nbsp; + &nbsp; </div>
        <div>
            Arianna
            <img width='150' style='border:2px black solid;' src='stims/img/CFD-LF-219-223-N.jpg'>
        </div>
        <div class='header-text'> &nbsp; </div>
    </div>
    ","null","0","false","2","stims/img/CFD-LF-219-223-N.jpg","Arianna","4","stims/img/CFD-LM-211-128-N.jpg","Jacob","","",""
"","null","fixation","html-keyboard-response","33","162475","0.0-3.0-0.15","4","3","<div style = ""font-size:60px;""> + </div>","null","","","","","","","","","","",""
"","null","learning_trial","html-keyboard-response","34","164982","0.0-3.0-1.15","4","3","
    <div class = 'grid-container'>
        <div class='header-text'> Friends </div>
        <div>
            Leah
            <img width='150' style='border:2px black solid;' src='stims/img/CFD-BF-210-130-N.jpg'>
        </div>
        <div> &nbsp; + &nbsp; </div>
        <div>
            Alexander
            <img width='150' style='border:2px black solid;' src='stims/img/CFD-LM-247-095-N.jpg'>
        </div>
        <div class='header-text'> &nbsp; </div>
    </div>
    ","null","0","true","11","stims/img/CFD-BF-210-130-N.jpg","Leah","12","stims/img/CFD-LM-247-095-N.jpg","Alexander","","",""
"","null","fixation","html-keyboard-response","35","165488","0.0-3.0-0.16","4","3","<div style = ""font-size:60px;""> + </div>","null","","","","","","","","","","",""
"","null","learning_trial","html-keyboard-response","36","167994","0.0-3.0-1.16","4","3","
    <div class = 'grid-container'>
        <div class='header-text'> Friends </div>
        <div>
            Arianna
            <img width='150' style='border:2px black solid;' src='stims/img/CFD-LF-219-223-N.jpg'>
        </div>
        <div> &nbsp; + &nbsp; </div>
        <div>
            Amir
            <img width='150' style='border:2px black solid;' src='stims/img/CFD-BM-237-188-N.jpg'>
        </div>
        <div class='header-text'> &nbsp; </div>
    </div>
    ","null","0","false","1","stims/img/CFD-BM-237-188-N.jpg","Amir","2","stims/img/CFD-LF-219-223-N.jpg","Arianna","","",""
"","13807","break","html-keyboard-response","37","181803","0.0-3.0-2.16-0.16","4","3","If you'd like to take a break before continuing, 
    please do so now. <p>To continue, please press the spacebar.</p>"," ","","","","","","","","","","",""
"","null","fixation","html-keyboard-response","38","182309","0.0-3.0-0.17","4","3","<div style = ""font-size:60px;""> + </div>","null","","","","","","","","","","",""
"","null","learning_trial","html-keyboard-response","39","184817","0.0-3.0-1.17","4","3","
    <div class = 'grid-container'>
        <div class='header-text'> Friends </div>
        <div>
            Evan
            <img width='150' style='border:2px black solid;' src='stims/img/CFD-AM-201-076-N.jpg'>
        </div>
        <div> &nbsp; + &nbsp; </div>
        <div>
            Leah
            <img width='150' style='border:2px black solid;' src='stims/img/CFD-BF-210-130-N.jpg'>
        </div>
        <div class='header-text'> &nbsp; </div>
    </div>
    ","null","1","false","11","stims/img/CFD-BF-210-130-N.jpg","Leah","13","stims/img/CFD-AM-201-076-N.jpg","Evan","","",""
"","null","fixation","html-keyboard-response","40","185323","0.0-3.0-0.18","4","3","<div style = ""font-size:60px;""> + </div>","null","","","","","","","","","","",""
"","null","learning_trial","html-keyboard-response","41","187825","0.0-3.0-1.18","4","3","
    <div class = 'grid-container'>
        <div class='header-text'> Friends </div>
        <div>
            Jacob
            <img width='150' style='border:2px black solid;' src='stims/img/CFD-LM-211-128-N.jpg'>
        </div>
        <div> &nbsp; + &nbsp; </div>
        <div>
            Leslie
            <img width='150' style='border:2px black solid;' src='stims/img/CFD-LF-225-164-N.jpg'>
        </div>
        <div class='header-text'> &nbsp; </div>
    </div>
    ","null","1","true","4","stims/img/CFD-LM-211-128-N.jpg","Jacob","5","stims/img/CFD-LF-225-164-N.jpg","Leslie","","",""
"","null","fixation","html-keyboard-response","42","188331","0.0-3.0-0.19","4","3","<div style = ""font-size:60px;""> + </div>","null","","","","","","","","","","",""
"","null","learning_trial","html-keyboard-response","43","190839","0.0-3.0-1.19","4","3","
    <div class = 'grid-container'>
        <div class='header-text'> Friends </div>
        <div>
            Jasmine
            <img width='150' style='border:2px black solid;' src='stims/img/CFD-AF-211-066-N.jpg'>
        </div>
        <div> &nbsp; + &nbsp; </div>
        <div>
            Jacob
            <img width='150' style='border:2px black solid;' src='stims/img/CFD-LM-211-128-N.jpg'>
        </div>
        <div class='header-text'> &nbsp; </div>
    </div>
    ","null","1","true","3","stims/img/CFD-AF-211-066-N.jpg","Jasmine","4","stims/img/CFD-LM-211-128-N.jpg","Jacob","","",""
"","null","fixation","html-keyboard-response","44","191345","0.0-3.0-0.20","4","3","<div style = ""font-size:60px;""> + </div>","null","","","","","","","","","","",""
"","null","learning_trial","html-keyboard-response","45","193852","0.0-3.0-1.20","4","3","
    <div class = 'grid-container'>
        <div class='header-text'> Friends </div>
        <div>
            Leah
            <img width='150' style='border:2px black solid;' src='stims/img/CFD-BF-210-130-N.jpg'>
        </div>
        <div> &nbsp; + &nbsp; </div>
        <div>
            Alexander
            <img width='150' style='border:2px black solid;' src='stims/img/CFD-LM-247-095-N.jpg'>
        </div>
        <div class='header-text'> &nbsp; </div>
    </div>
    ","null","1","true","11","stims/img/CFD-BF-210-130-N.jpg","Leah","12","stims/img/CFD-LM-247-095-N.jpg","Alexander","","",""
"","null","fixation","html-keyboard-response","46","194359","0.0-3.0-0.21","4","3","<div style = ""font-size:60px;""> + </div>","null","","","","","","","","","","",""
"","null","learning_trial","html-keyboard-response","47","196866","0.0-3.0-1.21","4","3","
    <div class = 'grid-container'>
        <div class='header-text'> Friends </div>
        <div>
            David
            <img width='150' style='border:2px black solid;' src='stims/img/CFD-BM-201-077-N.jpg'>
        </div>
        <div> &nbsp; + &nbsp; </div>
        <div>
            Alexander
            <img width='150' style='border:2px black solid;' src='stims/img/CFD-LM-247-095-N.jpg'>
        </div>
        <div class='header-text'> &nbsp; </div>
    </div>
    ","null","1","true","10","stims/img/CFD-BM-201-077-N.jpg","David","12","stims/img/CFD-LM-247-095-N.jpg","Alexander","","",""
"","null","fixation","html-keyboard-response","48","197371","0.0-3.0-0.22","4","3","<div style = ""font-size:60px;""> + </div>","null","","","","","","","","","","",""
"","null","learning_trial","html-keyboard-response","49","199878","0.0-3.0-1.22","4","3","
    <div class = 'grid-container'>
        <div class='header-text'> Friends </div>
        <div>
            Sophia
            <img width='150' style='border:2px black solid;' src='stims/img/CFD-WF-212-050-N.jpg'>
        </div>
        <div> &nbsp; + &nbsp; </div>
        <div>
            Jacob
            <img width='150' style='border:2px black solid;' src='stims/img/CFD-LM-211-128-N.jpg'>
        </div>
        <div class='header-text'> &nbsp; </div>
    </div>
    ","null","1","false","4","stims/img/CFD-LM-211-128-N.jpg","Jacob","6","stims/img/CFD-WF-212-050-N.jpg","Sophia","","",""
"","null","fixation","html-keyboard-response","50","200381","0.0-3.0-0.23","4","3","<div style = ""font-size:60px;""> + </div>","null","","","","","","","","","","",""
"","null","learning_trial","html-keyboard-response","51","202886","0.0-3.0-1.23","4","3","
    <div class = 'grid-container'>
        <div class='header-text'> Friends </div>
        <div>
            Elaine
            <img width='150' style='border:2px black solid;' src='stims/img/CFD-AF-250-200-N.jpg'>
        </div>
        <div> &nbsp; + &nbsp; </div>
        <div>
            Anna
            <img width='150' style='border:2px black solid;' src='stims/img/CFD-WF-214-122-N.jpg'>
        </div>
        <div class='header-text'> &nbsp; </div>
    </div>
    ","null","1","false","8","stims/img/CFD-WF-214-122-N.jpg","Anna","9","stims/img/CFD-AF-250-200-N.jpg","Elaine","","",""
"","null","fixation","html-keyboard-response","52","203390","0.0-3.0-0.24","4","3","<div style = ""font-size:60px;""> + </div>","null","","","","","","","","","","",""
"","null","learning_trial","html-keyboard-response","53","205896","0.0-3.0-1.24","4","3","
    <div class = 'grid-container'>
        <div class='header-text'> Friends </div>
        <div>
            David
            <img width='150' style='border:2px black solid;' src='stims/img/CFD-BM-201-077-N.jpg'>
        </div>
        <div> &nbsp; + &nbsp; </div>
        <div>
            Anna
            <img width='150' style='border:2px black solid;' src='stims/img/CFD-WF-214-122-N.jpg'>
        </div>
        <div class='header-text'> &nbsp; </div>
    </div>
    ","null","1","false","8","stims/img/CFD-WF-214-122-N.jpg","Anna","10","stims/img/CFD-BM-201-077-N.jpg","David","","",""
"","null","fixation","html-keyboard-response","54","206401","0.0-3.0-0.25","4","3","<div style = ""font-size:60px;""> + </div>","null","","","","","","","","","","",""
"","null","learning_trial","html-keyboard-response","55","208908","0.0-3.0-1.25","4","3","
    <div class = 'grid-container'>
        <div class='header-text'> Friends </div>
        <div>
            Leslie
            <img width='150' style='border:2px black solid;' src='stims/img/CFD-LF-225-164-N.jpg'>
        </div>
        <div> &nbsp; + &nbsp; </div>
        <div>
            Anthony
            <img width='150' style='border:2px black solid;' src='stims/img/CFD-WM-231-112-N.jpg'>
        </div>
        <div class='header-text'> &nbsp; </div>
    </div>
    ","null","1","true","5","stims/img/CFD-LF-225-164-N.jpg","Leslie","7","stims/img/CFD-WM-231-112-N.jpg","Anthony","","",""
"","null","fixation","html-keyboard-response","56","209413","0.0-3.0-0.26","4","3","<div style = ""font-size:60px;""> + </div>","null","","","","","","","","","","",""
"","null","learning_trial","html-keyboard-response","57","211921","0.0-3.0-1.26","4","3","
    <div class = 'grid-container'>
        <div class='header-text'> Friends </div>
        <div>
            Amir
            <img width='150' style='border:2px black solid;' src='stims/img/CFD-BM-237-188-N.jpg'>
        </div>
        <div> &nbsp; + &nbsp; </div>
        <div>
            Anna
            <img width='150' style='border:2px black solid;' src='stims/img/CFD-WF-214-122-N.jpg'>
        </div>
        <div class='header-text'> &nbsp; </div>
    </div>
    ","null","1","true","1","stims/img/CFD-BM-237-188-N.jpg","Amir","8","stims/img/CFD-WF-214-122-N.jpg","Anna","","",""
"","null","fixation","html-keyboard-response","58","212427","0.0-3.0-0.27","4","3","<div style = ""font-size:60px;""> + </div>","null","","","","","","","","","","",""
"","null","learning_trial","html-keyboard-response","59","214934","0.0-3.0-1.27","4","3","
    <div class = 'grid-container'>
        <div class='header-text'> Friends </div>
        <div>
            Arianna
            <img width='150' style='border:2px black solid;' src='stims/img/CFD-LF-219-223-N.jpg'>
        </div>
        <div> &nbsp; + &nbsp; </div>
        <div>
            Jasmine
            <img width='150' style='border:2px black solid;' src='stims/img/CFD-AF-211-066-N.jpg'>
        </div>
        <div class='header-text'> &nbsp; </div>
    </div>
    ","null","1","true","2","stims/img/CFD-LF-219-223-N.jpg","Arianna","3","stims/img/CFD-AF-211-066-N.jpg","Jasmine","","",""
"","null","fixation","html-keyboard-response","60","215440","0.0-3.0-0.28","4","3","<div style = ""font-size:60px;""> + </div>","null","","","","","","","","","","",""
"","null","learning_trial","html-keyboard-response","61","217946","0.0-3.0-1.28","4","3","
    <div class = 'grid-container'>
        <div class='header-text'> Friends </div>
        <div>
            Jasmine
            <img width='150' style='border:2px black solid;' src='stims/img/CFD-AF-211-066-N.jpg'>
        </div>
        <div> &nbsp; + &nbsp; </div>
        <div>
            Leslie
            <img width='150' style='border:2px black solid;' src='stims/img/CFD-LF-225-164-N.jpg'>
        </div>
        <div class='header-text'> &nbsp; </div>
    </div>
    ","null","1","true","3","stims/img/CFD-AF-211-066-N.jpg","Jasmine","5","stims/img/CFD-LF-225-164-N.jpg","Leslie","","",""
"","null","fixation","html-keyboard-response","62","218449","0.0-3.0-0.29","4","3","<div style = ""font-size:60px;""> + </div>","null","","","","","","","","","","",""
"","null","learning_trial","html-keyboard-response","63","220955","0.0-3.0-1.29","4","3","
    <div class = 'grid-container'>
        <div class='header-text'> Friends </div>
        <div>
            Jacob
            <img width='150' style='border:2px black solid;' src='stims/img/CFD-LM-211-128-N.jpg'>
        </div>
        <div> &nbsp; + &nbsp; </div>
        <div>
            Arianna
            <img width='150' style='border:2px black solid;' src='stims/img/CFD-LF-219-223-N.jpg'>
        </div>
        <div class='header-text'> &nbsp; </div>
    </div>
    ","null","1","false","2","stims/img/CFD-LF-219-223-N.jpg","Arianna","4","stims/img/CFD-LM-211-128-N.jpg","Jacob","","",""
"","null","fixation","html-keyboard-response","64","221462","0.0-3.0-0.30","4","3","<div style = ""font-size:60px;""> + </div>","null","","","","","","","","","","",""
"","null","learning_trial","html-keyboard-response","65","223963","0.0-3.0-1.30","4","3","
    <div class = 'grid-container'>
        <div class='header-text'> Friends </div>
        <div>
            Amir
            <img width='150' style='border:2px black solid;' src='stims/img/CFD-BM-237-188-N.jpg'>
        </div>
        <div> &nbsp; + &nbsp; </div>
        <div>
            Arianna
            <img width='150' style='border:2px black solid;' src='stims/img/CFD-LF-219-223-N.jpg'>
        </div>
        <div class='header-text'> &nbsp; </div>
    </div>
    ","null","1","true","1","stims/img/CFD-BM-237-188-N.jpg","Amir","2","stims/img/CFD-LF-219-223-N.jpg","Arianna","","",""
"","null","fixation","html-keyboard-response","66","224469","0.0-3.0-0.31","4","3","<div style = ""font-size:60px;""> + </div>","null","","","","","","","","","","",""
"","null","learning_trial","html-keyboard-response","67","226976","0.0-3.0-1.31","4","3","
    <div class = 'grid-container'>
        <div class='header-text'> Friends </div>
        <div>
            Elaine
            <img width='150' style='border:2px black solid;' src='stims/img/CFD-AF-250-200-N.jpg'>
        </div>
        <div> &nbsp; + &nbsp; </div>
        <div>
            Leah
            <img width='150' style='border:2px black solid;' src='stims/img/CFD-BF-210-130-N.jpg'>
        </div>
        <div class='header-text'> &nbsp; </div>
    </div>
    ","null","1","true","9","stims/img/CFD-AF-250-200-N.jpg","Elaine","11","stims/img/CFD-BF-210-130-N.jpg","Leah","","",""
"","null","fixation","html-keyboard-response","68","227482","0.0-3.0-0.32","4","3","<div style = ""font-size:60px;""> + </div>","null","","","","","","","","","","",""
"","null","learning_trial","html-keyboard-response","69","229989","0.0-3.0-1.32","4","3","
    <div class = 'grid-container'>
        <div class='header-text'> Friends </div>
        <div>
            Sophia
            <img width='150' style='border:2px black solid;' src='stims/img/CFD-WF-212-050-N.jpg'>
        </div>
        <div> &nbsp; + &nbsp; </div>
        <div>
            Anthony
            <img width='150' style='border:2px black solid;' src='stims/img/CFD-WM-231-112-N.jpg'>
        </div>
        <div class='header-text'> &nbsp; </div>
    </div>
    ","null","1","true","6","stims/img/CFD-WF-212-050-N.jpg","Sophia","7","stims/img/CFD-WM-231-112-N.jpg","Anthony","","",""
"","null","fixation","html-keyboard-response","70","230491","0.0-3.0-0.33","4","3","<div style = ""font-size:60px;""> + </div>","null","","","","","","","","","","",""
"","null","learning_trial","html-keyboard-response","71","232998","0.0-3.0-1.33","4","3","
    <div class = 'grid-container'>
        <div class='header-text'> Friends </div>
        <div>
            Evan
            <img width='150' style='border:2px black solid;' src='stims/img/CFD-AM-201-076-N.jpg'>
        </div>
        <div> &nbsp; + &nbsp; </div>
        <div>
            Alexander
            <img width='150' style='border:2px black solid;' src='stims/img/CFD-LM-247-095-N.jpg'>
        </div>
        <div class='header-text'> &nbsp; </div>
    </div>
    ","null","1","false","12","stims/img/CFD-LM-247-095-N.jpg","Alexander","13","stims/img/CFD-AM-201-076-N.jpg","Evan","","",""
"","1531","break","html-keyboard-response","72","234530","0.0-3.0-2.33-0.33","4","3","If you'd like to take a break before continuing, 
    please do so now. <p>To continue, please press the spacebar.</p>"," ","","","","","","","","","","",""
"","null","fixation","html-keyboard-response","73","235035","0.0-3.0-0.34","4","3","<div style = ""font-size:60px;""> + </div>","null","","","","","","","","","","",""
"","null","learning_trial","html-keyboard-response","74","237542","0.0-3.0-1.34","4","3","
    <div class = 'grid-container'>
        <div class='header-text'> Friends </div>
        <div>
            Jacob
            <img width='150' style='border:2px black solid;' src='stims/img/CFD-LM-211-128-N.jpg'>
        </div>
        <div> &nbsp; + &nbsp; </div>
        <div>
            Leslie
            <img width='150' style='border:2px black solid;' src='stims/img/CFD-LF-225-164-N.jpg'>
        </div>
        <div class='header-text'> &nbsp; </div>
    </div>
    ","null","2","true","4","stims/img/CFD-LM-211-128-N.jpg","Jacob","5","stims/img/CFD-LF-225-164-N.jpg","Leslie","","",""
"","null","fixation","html-keyboard-response","75","238048","0.0-3.0-0.35","4","3","<div style = ""font-size:60px;""> + </div>","null","","","","","","","","","","",""
"","null","learning_trial","html-keyboard-response","76","240555","0.0-3.0-1.35","4","3","
    <div class = 'grid-container'>
        <div class='header-text'> Friends </div>
        <div>
            Elaine
            <img width='150' style='border:2px black solid;' src='stims/img/CFD-AF-250-200-N.jpg'>
        </div>
        <div> &nbsp; + &nbsp; </div>
        <div>
            Leah
            <img width='150' style='border:2px black solid;' src='stims/img/CFD-BF-210-130-N.jpg'>
        </div>
        <div class='header-text'> &nbsp; </div>
    </div>
    ","null","2","true","9","stims/img/CFD-AF-250-200-N.jpg","Elaine","11","stims/img/CFD-BF-210-130-N.jpg","Leah","","",""
"","null","fixation","html-keyboard-response","77","241061","0.0-3.0-0.36","4","3","<div style = ""font-size:60px;""> + </div>","null","","","","","","","","","","",""
"","null","learning_trial","html-keyboard-response","78","243567","0.0-3.0-1.36","4","3","
    <div class = 'grid-container'>
        <div class='header-text'> Friends </div>
        <div>
            Arianna
            <img width='150' style='border:2px black solid;' src='stims/img/CFD-LF-219-223-N.jpg'>
        </div>
        <div> &nbsp; + &nbsp; </div>
        <div>
            Amir
            <img width='150' style='border:2px black solid;' src='stims/img/CFD-BM-237-188-N.jpg'>
        </div>
        <div class='header-text'> &nbsp; </div>
    </div>
    ","null","2","false","1","stims/img/CFD-BM-237-188-N.jpg","Amir","2","stims/img/CFD-LF-219-223-N.jpg","Arianna","","",""
"","null","fixation","html-keyboard-response","79","244074","0.0-3.0-0.37","4","3","<div style = ""font-size:60px;""> + </div>","null","","","","","","","","","","",""
"","null","learning_trial","html-keyboard-response","80","246580","0.0-3.0-1.37","4","3","
    <div class = 'grid-container'>
        <div class='header-text'> Friends </div>
        <div>
            Alexander
            <img width='150' style='border:2px black solid;' src='stims/img/CFD-LM-247-095-N.jpg'>
        </div>
        <div> &nbsp; + &nbsp; </div>
        <div>
            Evan
            <img width='150' style='border:2px black solid;' src='stims/img/CFD-AM-201-076-N.jpg'>
        </div>
        <div class='header-text'> &nbsp; </div>
    </div>
    ","null","2","true","12","stims/img/CFD-LM-247-095-N.jpg","Alexander","13","stims/img/CFD-AM-201-076-N.jpg","Evan","","",""
"","null","fixation","html-keyboard-response","81","247087","0.0-3.0-0.38","4","3","<div style = ""font-size:60px;""> + </div>","null","","","","","","","","","","",""
"","null","learning_trial","html-keyboard-response","82","249595","0.0-3.0-1.38","4","3","
    <div class = 'grid-container'>
        <div class='header-text'> Friends </div>
        <div>
            David
            <img width='150' style='border:2px black solid;' src='stims/img/CFD-BM-201-077-N.jpg'>
        </div>
        <div> &nbsp; + &nbsp; </div>
        <div>
            Alexander
            <img width='150' style='border:2px black solid;' src='stims/img/CFD-LM-247-095-N.jpg'>
        </div>
        <div class='header-text'> &nbsp; </div>
    </div>
    ","null","2","true","10","stims/img/CFD-BM-201-077-N.jpg","David","12","stims/img/CFD-LM-247-095-N.jpg","Alexander","","",""
"","null","fixation","html-keyboard-response","83","250101","0.0-3.0-0.39","4","3","<div style = ""font-size:60px;""> + </div>","null","","","","","","","","","","",""
"","null","learning_trial","html-keyboard-response","84","252607","0.0-3.0-1.39","4","3","
    <div class = 'grid-container'>
        <div class='header-text'> Friends </div>
        <div>
            Anthony
            <img width='150' style='border:2px black solid;' src='stims/img/CFD-WM-231-112-N.jpg'>
        </div>
        <div> &nbsp; + &nbsp; </div>
        <div>
            Sophia
            <img width='150' style='border:2px black solid;' src='stims/img/CFD-WF-212-050-N.jpg'>
        </div>
        <div class='header-text'> &nbsp; </div>
    </div>
    ","null","2","false","6","stims/img/CFD-WF-212-050-N.jpg","Sophia","7","stims/img/CFD-WM-231-112-N.jpg","Anthony","","",""
"","null","fixation","html-keyboard-response","85","253114","0.0-3.0-0.40","4","3","<div style = ""font-size:60px;""> + </div>","null","","","","","","","","","","",""
"","null","learning_trial","html-keyboard-response","86","255620","0.0-3.0-1.40","4","3","
    <div class = 'grid-container'>
        <div class='header-text'> Friends </div>
        <div>
            Leslie
            <img width='150' style='border:2px black solid;' src='stims/img/CFD-LF-225-164-N.jpg'>
        </div>
        <div> &nbsp; + &nbsp; </div>
        <div>
            Anthony
            <img width='150' style='border:2px black solid;' src='stims/img/CFD-WM-231-112-N.jpg'>
        </div>
        <div class='header-text'> &nbsp; </div>
    </div>
    ","null","2","true","5","stims/img/CFD-LF-225-164-N.jpg","Leslie","7","stims/img/CFD-WM-231-112-N.jpg","Anthony","","",""
"","null","fixation","html-keyboard-response","87","256123","0.0-3.0-0.41","4","3","<div style = ""font-size:60px;""> + </div>","null","","","","","","","","","","",""
"","null","learning_trial","html-keyboard-response","88","258630","0.0-3.0-1.41","4","3","
    <div class = 'grid-container'>
        <div class='header-text'> Friends </div>
        <div>
            David
            <img width='150' style='border:2px black solid;' src='stims/img/CFD-BM-201-077-N.jpg'>
        </div>
        <div> &nbsp; + &nbsp; </div>
        <div>
            Anna
            <img width='150' style='border:2px black solid;' src='stims/img/CFD-WF-214-122-N.jpg'>
        </div>
        <div class='header-text'> &nbsp; </div>
    </div>
    ","null","2","false","8","stims/img/CFD-WF-214-122-N.jpg","Anna","10","stims/img/CFD-BM-201-077-N.jpg","David","","",""
"","null","fixation","html-keyboard-response","89","259136","0.0-3.0-0.42","4","3","<div style = ""font-size:60px;""> + </div>","null","","","","","","","","","","",""
"","null","learning_trial","html-keyboard-response","90","261643","0.0-3.0-1.42","4","3","
    <div class = 'grid-container'>
        <div class='header-text'> Friends </div>
        <div>
            Leah
            <img width='150' style='border:2px black solid;' src='stims/img/CFD-BF-210-130-N.jpg'>
        </div>
        <div> &nbsp; + &nbsp; </div>
        <div>
            Alexander
            <img width='150' style='border:2px black solid;' src='stims/img/CFD-LM-247-095-N.jpg'>
        </div>
        <div class='header-text'> &nbsp; </div>
    </div>
    ","null","2","true","11","stims/img/CFD-BF-210-130-N.jpg","Leah","12","stims/img/CFD-LM-247-095-N.jpg","Alexander","","",""
"","null","fixation","html-keyboard-response","91","262148","0.0-3.0-0.43","4","3","<div style = ""font-size:60px;""> + </div>","null","","","","","","","","","","",""
"","null","learning_trial","html-keyboard-response","92","264656","0.0-3.0-1.43","4","3","
    <div class = 'grid-container'>
        <div class='header-text'> Friends </div>
        <div>
            Jasmine
            <img width='150' style='border:2px black solid;' src='stims/img/CFD-AF-211-066-N.jpg'>
        </div>
        <div> &nbsp; + &nbsp; </div>
        <div>
            Leslie
            <img width='150' style='border:2px black solid;' src='stims/img/CFD-LF-225-164-N.jpg'>
        </div>
        <div class='header-text'> &nbsp; </div>
    </div>
    ","null","2","true","3","stims/img/CFD-AF-211-066-N.jpg","Jasmine","5","stims/img/CFD-LF-225-164-N.jpg","Leslie","","",""
"","null","fixation","html-keyboard-response","93","265162","0.0-3.0-0.44","4","3","<div style = ""font-size:60px;""> + </div>","null","","","","","","","","","","",""
"","null","learning_trial","html-keyboard-response","94","267668","0.0-3.0-1.44","4","3","
    <div class = 'grid-container'>
        <div class='header-text'> Friends </div>
        <div>
            Arianna
            <img width='150' style='border:2px black solid;' src='stims/img/CFD-LF-219-223-N.jpg'>
        </div>
        <div> &nbsp; + &nbsp; </div>
        <div>
            Jasmine
            <img width='150' style='border:2px black solid;' src='stims/img/CFD-AF-211-066-N.jpg'>
        </div>
        <div class='header-text'> &nbsp; </div>
    </div>
    ","null","2","true","2","stims/img/CFD-LF-219-223-N.jpg","Arianna","3","stims/img/CFD-AF-211-066-N.jpg","Jasmine","","",""
"","null","fixation","html-keyboard-response","95","268175","0.0-3.0-0.45","4","3","<div style = ""font-size:60px;""> + </div>","null","","","","","","","","","","",""
"","null","learning_trial","html-keyboard-response","96","270680","0.0-3.0-1.45","4","3","
    <div class = 'grid-container'>
        <div class='header-text'> Friends </div>
        <div>
            Jasmine
            <img width='150' style='border:2px black solid;' src='stims/img/CFD-AF-211-066-N.jpg'>
        </div>
        <div> &nbsp; + &nbsp; </div>
        <div>
            Jacob
            <img width='150' style='border:2px black solid;' src='stims/img/CFD-LM-211-128-N.jpg'>
        </div>
        <div class='header-text'> &nbsp; </div>
    </div>
    ","null","2","true","3","stims/img/CFD-AF-211-066-N.jpg","Jasmine","4","stims/img/CFD-LM-211-128-N.jpg","Jacob","","",""
"","null","fixation","html-keyboard-response","97","271186","0.0-3.0-0.46","4","3","<div style = ""font-size:60px;""> + </div>","null","","","","","","","","","","",""
"","null","learning_trial","html-keyboard-response","98","273693","0.0-3.0-1.46","4","3","
    <div class = 'grid-container'>
        <div class='header-text'> Friends </div>
        <div>
            Anna
            <img width='150' style='border:2px black solid;' src='stims/img/CFD-WF-214-122-N.jpg'>
        </div>
        <div> &nbsp; + &nbsp; </div>
        <div>
            Amir
            <img width='150' style='border:2px black solid;' src='stims/img/CFD-BM-237-188-N.jpg'>
        </div>
        <div class='header-text'> &nbsp; </div>
    </div>
    ","null","2","false","1","stims/img/CFD-BM-237-188-N.jpg","Amir","8","stims/img/CFD-WF-214-122-N.jpg","Anna","","",""
"","null","fixation","html-keyboard-response","99","274199","0.0-3.0-0.47","4","3","<div style = ""font-size:60px;""> + </div>","null","","","","","","","","","","",""
"","null","learning_trial","html-keyboard-response","100","276704","0.0-3.0-1.47","4","3","
    <div class = 'grid-container'>
        <div class='header-text'> Friends </div>
        <div>
            Evan
            <img width='150' style='border:2px black solid;' src='stims/img/CFD-AM-201-076-N.jpg'>
        </div>
        <div> &nbsp; + &nbsp; </div>
        <div>
            Leah
            <img width='150' style='border:2px black solid;' src='stims/img/CFD-BF-210-130-N.jpg'>
        </div>
        <div class='header-text'> &nbsp; </div>
    </div>
    ","null","2","false","11","stims/img/CFD-BF-210-130-N.jpg","Leah","13","stims/img/CFD-AM-201-076-N.jpg","Evan","","",""
"","null","fixation","html-keyboard-response","101","277210","0.0-3.0-0.48","4","3","<div style = ""font-size:60px;""> + </div>","null","","","","","","","","","","",""
"","null","learning_trial","html-keyboard-response","102","279716","0.0-3.0-1.48","4","3","
    <div class = 'grid-container'>
        <div class='header-text'> Friends </div>
        <div>
            Sophia
            <img width='150' style='border:2px black solid;' src='stims/img/CFD-WF-212-050-N.jpg'>
        </div>
        <div> &nbsp; + &nbsp; </div>
        <div>
            Jacob
            <img width='150' style='border:2px black solid;' src='stims/img/CFD-LM-211-128-N.jpg'>
        </div>
        <div class='header-text'> &nbsp; </div>
    </div>
    ","null","2","false","4","stims/img/CFD-LM-211-128-N.jpg","Jacob","6","stims/img/CFD-WF-212-050-N.jpg","Sophia","","",""
"","null","fixation","html-keyboard-response","103","280218","0.0-3.0-0.49","4","3","<div style = ""font-size:60px;""> + </div>","null","","","","","","","","","","",""
"","null","learning_trial","html-keyboard-response","104","282724","0.0-3.0-1.49","4","3","
    <div class = 'grid-container'>
        <div class='header-text'> Friends </div>
        <div>
            Elaine
            <img width='150' style='border:2px black solid;' src='stims/img/CFD-AF-250-200-N.jpg'>
        </div>
        <div> &nbsp; + &nbsp; </div>
        <div>
            Anna
            <img width='150' style='border:2px black solid;' src='stims/img/CFD-WF-214-122-N.jpg'>
        </div>
        <div class='header-text'> &nbsp; </div>
    </div>
    ","null","2","false","8","stims/img/CFD-WF-214-122-N.jpg","Anna","9","stims/img/CFD-AF-250-200-N.jpg","Elaine","","",""
"","null","fixation","html-keyboard-response","105","283226","0.0-3.0-0.50","4","3","<div style = ""font-size:60px;""> + </div>","null","","","","","","","","","","",""
"","null","learning_trial","html-keyboard-response","106","285733","0.0-3.0-1.50","4","3","
    <div class = 'grid-container'>
        <div class='header-text'> Friends </div>
        <div>
            Arianna
            <img width='150' style='border:2px black solid;' src='stims/img/CFD-LF-219-223-N.jpg'>
        </div>
        <div> &nbsp; + &nbsp; </div>
        <div>
            Jacob
            <img width='150' style='border:2px black solid;' src='stims/img/CFD-LM-211-128-N.jpg'>
        </div>
        <div class='header-text'> &nbsp; </div>
    </div>
    ","null","2","true","2","stims/img/CFD-LF-219-223-N.jpg","Arianna","4","stims/img/CFD-LM-211-128-N.jpg","Jacob","","",""
"","4852","break","html-keyboard-response","107","290585","0.0-3.0-2.50-0.50","4","3","If you'd like to take a break before continuing, 
    please do so now. <p>To continue, please press the spacebar.</p>"," ","","","","","","","","","","",""
"","null","fixation","html-keyboard-response","108","291088","0.0-3.0-0.51","4","3","<div style = ""font-size:60px;""> + </div>","null","","","","","","","","","","",""
"","null","learning_trial","html-keyboard-response","109","293594","0.0-3.0-1.51","4","3","
    <div class = 'grid-container'>
        <div class='header-text'> Friends </div>
        <div>
            Anna
            <img width='150' style='border:2px black solid;' src='stims/img/CFD-WF-214-122-N.jpg'>
        </div>
        <div> &nbsp; + &nbsp; </div>
        <div>
            Elaine
            <img width='150' style='border:2px black solid;' src='stims/img/CFD-AF-250-200-N.jpg'>
        </div>
        <div class='header-text'> &nbsp; </div>
    </div>
    ","null","3","true","8","stims/img/CFD-WF-214-122-N.jpg","Anna","9","stims/img/CFD-AF-250-200-N.jpg","Elaine","","",""
"","null","fixation","html-keyboard-response","110","294095","0.0-3.0-0.52","4","3","<div style = ""font-size:60px;""> + </div>","null","","","","","","","","","","",""
"","null","learning_trial","html-keyboard-response","111","296602","0.0-3.0-1.52","4","3","
    <div class = 'grid-container'>
        <div class='header-text'> Friends </div>
        <div>
            Leah
            <img width='150' style='border:2px black solid;' src='stims/img/CFD-BF-210-130-N.jpg'>
        </div>
        <div> &nbsp; + &nbsp; </div>
        <div>
            Evan
            <img width='150' style='border:2px black solid;' src='stims/img/CFD-AM-201-076-N.jpg'>
        </div>
        <div class='header-text'> &nbsp; </div>
    </div>
    ","null","3","true","11","stims/img/CFD-BF-210-130-N.jpg","Leah","13","stims/img/CFD-AM-201-076-N.jpg","Evan","","",""
"","null","fixation","html-keyboard-response","112","297108","0.0-3.0-0.53","4","3","<div style = ""font-size:60px;""> + </div>","null","","","","","","","","","","",""
"","null","learning_trial","html-keyboard-response","113","299616","0.0-3.0-1.53","4","3","
    <div class = 'grid-container'>
        <div class='header-text'> Friends </div>
        <div>
            Jasmine
            <img width='150' style='border:2px black solid;' src='stims/img/CFD-AF-211-066-N.jpg'>
        </div>
        <div> &nbsp; + &nbsp; </div>
        <div>
            Arianna
            <img width='150' style='border:2px black solid;' src='stims/img/CFD-LF-219-223-N.jpg'>
        </div>
        <div class='header-text'> &nbsp; </div>
    </div>
    ","null","3","false","2","stims/img/CFD-LF-219-223-N.jpg","Arianna","3","stims/img/CFD-AF-211-066-N.jpg","Jasmine","","",""
"","null","fixation","html-keyboard-response","114","300119","0.0-3.0-0.54","4","3","<div style = ""font-size:60px;""> + </div>","null","","","","","","","","","","",""
"","null","learning_trial","html-keyboard-response","115","302624","0.0-3.0-1.54","4","3","
    <div class = 'grid-container'>
        <div class='header-text'> Friends </div>
        <div>
            Jasmine
            <img width='150' style='border:2px black solid;' src='stims/img/CFD-AF-211-066-N.jpg'>
        </div>
        <div> &nbsp; + &nbsp; </div>
        <div>
            Jacob
            <img width='150' style='border:2px black solid;' src='stims/img/CFD-LM-211-128-N.jpg'>
        </div>
        <div class='header-text'> &nbsp; </div>
    </div>
    ","null","3","true","3","stims/img/CFD-AF-211-066-N.jpg","Jasmine","4","stims/img/CFD-LM-211-128-N.jpg","Jacob","","",""
"","null","fixation","html-keyboard-response","116","303130","0.0-3.0-0.55","4","3","<div style = ""font-size:60px;""> + </div>","null","","","","","","","","","","",""
"","null","learning_trial","html-keyboard-response","117","305637","0.0-3.0-1.55","4","3","
    <div class = 'grid-container'>
        <div class='header-text'> Friends </div>
        <div>
            Evan
            <img width='150' style='border:2px black solid;' src='stims/img/CFD-AM-201-076-N.jpg'>
        </div>
        <div> &nbsp; + &nbsp; </div>
        <div>
            Alexander
            <img width='150' style='border:2px black solid;' src='stims/img/CFD-LM-247-095-N.jpg'>
        </div>
        <div class='header-text'> &nbsp; </div>
    </div>
    ","null","3","false","12","stims/img/CFD-LM-247-095-N.jpg","Alexander","13","stims/img/CFD-AM-201-076-N.jpg","Evan","","",""
"","null","fixation","html-keyboard-response","118","306144","0.0-3.0-0.56","4","3","<div style = ""font-size:60px;""> + </div>","null","","","","","","","","","","",""
"","null","learning_trial","html-keyboard-response","119","308651","0.0-3.0-1.56","4","3","
    <div class = 'grid-container'>
        <div class='header-text'> Friends </div>
        <div>
            Amir
            <img width='150' style='border:2px black solid;' src='stims/img/CFD-BM-237-188-N.jpg'>
        </div>
        <div> &nbsp; + &nbsp; </div>
        <div>
            Anna
            <img width='150' style='border:2px black solid;' src='stims/img/CFD-WF-214-122-N.jpg'>
        </div>
        <div class='header-text'> &nbsp; </div>
    </div>
    ","null","3","true","1","stims/img/CFD-BM-237-188-N.jpg","Amir","8","stims/img/CFD-WF-214-122-N.jpg","Anna","","",""
"","null","fixation","html-keyboard-response","120","309157","0.0-3.0-0.57","4","3","<div style = ""font-size:60px;""> + </div>","null","","","","","","","","","","",""
"","null","learning_trial","html-keyboard-response","121","311664","0.0-3.0-1.57","4","3","
    <div class = 'grid-container'>
        <div class='header-text'> Friends </div>
        <div>
            Alexander
            <img width='150' style='border:2px black solid;' src='stims/img/CFD-LM-247-095-N.jpg'>
        </div>
        <div> &nbsp; + &nbsp; </div>
        <div>
            David
            <img width='150' style='border:2px black solid;' src='stims/img/CFD-BM-201-077-N.jpg'>
        </div>
        <div class='header-text'> &nbsp; </div>
    </div>
    ","null","3","false","10","stims/img/CFD-BM-201-077-N.jpg","David","12","stims/img/CFD-LM-247-095-N.jpg","Alexander","","",""
"","null","fixation","html-keyboard-response","122","312170","0.0-3.0-0.58","4","3","<div style = ""font-size:60px;""> + </div>","null","","","","","","","","","","",""
"","null","learning_trial","html-keyboard-response","123","314677","0.0-3.0-1.58","4","3","
    <div class = 'grid-container'>
        <div class='header-text'> Friends </div>
        <div>
            David
            <img width='150' style='border:2px black solid;' src='stims/img/CFD-BM-201-077-N.jpg'>
        </div>
        <div> &nbsp; + &nbsp; </div>
        <div>
            Anna
            <img width='150' style='border:2px black solid;' src='stims/img/CFD-WF-214-122-N.jpg'>
        </div>
        <div class='header-text'> &nbsp; </div>
    </div>
    ","null","3","false","8","stims/img/CFD-WF-214-122-N.jpg","Anna","10","stims/img/CFD-BM-201-077-N.jpg","David","","",""
"","null","fixation","html-keyboard-response","124","315183","0.0-3.0-0.59","4","3","<div style = ""font-size:60px;""> + </div>","null","","","","","","","","","","",""
"","null","learning_trial","html-keyboard-response","125","317690","0.0-3.0-1.59","4","3","
    <div class = 'grid-container'>
        <div class='header-text'> Friends </div>
        <div>
            Alexander
            <img width='150' style='border:2px black solid;' src='stims/img/CFD-LM-247-095-N.jpg'>
        </div>
        <div> &nbsp; + &nbsp; </div>
        <div>
            Leah
            <img width='150' style='border:2px black solid;' src='stims/img/CFD-BF-210-130-N.jpg'>
        </div>
        <div class='header-text'> &nbsp; </div>
    </div>
    ","null","3","false","11","stims/img/CFD-BF-210-130-N.jpg","Leah","12","stims/img/CFD-LM-247-095-N.jpg","Alexander","","",""
"","null","fixation","html-keyboard-response","126","318196","0.0-3.0-0.60","4","3","<div style = ""font-size:60px;""> + </div>","null","","","","","","","","","","",""
"","null","learning_trial","html-keyboard-response","127","320704","0.0-3.0-1.60","4","3","
    <div class = 'grid-container'>
        <div class='header-text'> Friends </div>
        <div>
            Leslie
            <img width='150' style='border:2px black solid;' src='stims/img/CFD-LF-225-164-N.jpg'>
        </div>
        <div> &nbsp; + &nbsp; </div>
        <div>
            Jasmine
            <img width='150' style='border:2px black solid;' src='stims/img/CFD-AF-211-066-N.jpg'>
        </div>
        <div class='header-text'> &nbsp; </div>
    </div>
    ","null","3","false","3","stims/img/CFD-AF-211-066-N.jpg","Jasmine","5","stims/img/CFD-LF-225-164-N.jpg","Leslie","","",""
"","null","fixation","html-keyboard-response","128","321210","0.0-3.0-0.61","4","3","<div style = ""font-size:60px;""> + </div>","null","","","","","","","","","","",""
"","null","learning_trial","html-keyboard-response","129","323717","0.0-3.0-1.61","4","3","
    <div class = 'grid-container'>
        <div class='header-text'> Friends </div>
        <div>
            Arianna
            <img width='150' style='border:2px black solid;' src='stims/img/CFD-LF-219-223-N.jpg'>
        </div>
        <div> &nbsp; + &nbsp; </div>
        <div>
            Jacob
            <img width='150' style='border:2px black solid;' src='stims/img/CFD-LM-211-128-N.jpg'>
        </div>
        <div class='header-text'> &nbsp; </div>
    </div>
    ","null","3","true","2","stims/img/CFD-LF-219-223-N.jpg","Arianna","4","stims/img/CFD-LM-211-128-N.jpg","Jacob","","",""
"","null","fixation","html-keyboard-response","130","324218","0.0-3.0-0.62","4","3","<div style = ""font-size:60px;""> + </div>","null","","","","","","","","","","",""
"","null","learning_trial","html-keyboard-response","131","326725","0.0-3.0-1.62","4","3","
    <div class = 'grid-container'>
        <div class='header-text'> Friends </div>
        <div>
            Jacob
            <img width='150' style='border:2px black solid;' src='stims/img/CFD-LM-211-128-N.jpg'>
        </div>
        <div> &nbsp; + &nbsp; </div>
        <div>
            Sophia
            <img width='150' style='border:2px black solid;' src='stims/img/CFD-WF-212-050-N.jpg'>
        </div>
        <div class='header-text'> &nbsp; </div>
    </div>
    ","null","3","true","4","stims/img/CFD-LM-211-128-N.jpg","Jacob","6","stims/img/CFD-WF-212-050-N.jpg","Sophia","","",""
"","null","fixation","html-keyboard-response","132","327226","0.0-3.0-0.63","4","3","<div style = ""font-size:60px;""> + </div>","null","","","","","","","","","","",""
"","null","learning_trial","html-keyboard-response","133","329733","0.0-3.0-1.63","4","3","
    <div class = 'grid-container'>
        <div class='header-text'> Friends </div>
        <div>
            Jacob
            <img width='150' style='border:2px black solid;' src='stims/img/CFD-LM-211-128-N.jpg'>
        </div>
        <div> &nbsp; + &nbsp; </div>
        <div>
            Leslie
            <img width='150' style='border:2px black solid;' src='stims/img/CFD-LF-225-164-N.jpg'>
        </div>
        <div class='header-text'> &nbsp; </div>
    </div>
    ","null","3","true","4","stims/img/CFD-LM-211-128-N.jpg","Jacob","5","stims/img/CFD-LF-225-164-N.jpg","Leslie","","",""
"","null","fixation","html-keyboard-response","134","330234","0.0-3.0-0.64","4","3","<div style = ""font-size:60px;""> + </div>","null","","","","","","","","","","",""
"","null","learning_trial","html-keyboard-response","135","332737","0.0-3.0-1.64","4","3","
    <div class = 'grid-container'>
        <div class='header-text'> Friends </div>
        <div>
            Amir
            <img width='150' style='border:2px black solid;' src='stims/img/CFD-BM-237-188-N.jpg'>
        </div>
        <div> &nbsp; + &nbsp; </div>
        <div>
            Arianna
            <img width='150' style='border:2px black solid;' src='stims/img/CFD-LF-219-223-N.jpg'>
        </div>
        <div class='header-text'> &nbsp; </div>
    </div>
    ","null","3","true","1","stims/img/CFD-BM-237-188-N.jpg","Amir","2","stims/img/CFD-LF-219-223-N.jpg","Arianna","","",""
"","null","fixation","html-keyboard-response","136","333244","0.0-3.0-0.65","4","3","<div style = ""font-size:60px;""> + </div>","null","","","","","","","","","","",""
"","null","learning_trial","html-keyboard-response","137","335747","0.0-3.0-1.65","4","3","
    <div class = 'grid-container'>
        <div class='header-text'> Friends </div>
        <div>
            Sophia
            <img width='150' style='border:2px black solid;' src='stims/img/CFD-WF-212-050-N.jpg'>
        </div>
        <div> &nbsp; + &nbsp; </div>
        <div>
            Anthony
            <img width='150' style='border:2px black solid;' src='stims/img/CFD-WM-231-112-N.jpg'>
        </div>
        <div class='header-text'> &nbsp; </div>
    </div>
    ","null","3","true","6","stims/img/CFD-WF-212-050-N.jpg","Sophia","7","stims/img/CFD-WM-231-112-N.jpg","Anthony","","",""
"","null","fixation","html-keyboard-response","138","336253","0.0-3.0-0.66","4","3","<div style = ""font-size:60px;""> + </div>","null","","","","","","","","","","",""
"","null","learning_trial","html-keyboard-response","139","338760","0.0-3.0-1.66","4","3","
    <div class = 'grid-container'>
        <div class='header-text'> Friends </div>
        <div>
            Anthony
            <img width='150' style='border:2px black solid;' src='stims/img/CFD-WM-231-112-N.jpg'>
        </div>
        <div> &nbsp; + &nbsp; </div>
        <div>
            Leslie
            <img width='150' style='border:2px black solid;' src='stims/img/CFD-LF-225-164-N.jpg'>
        </div>
        <div class='header-text'> &nbsp; </div>
    </div>
    ","null","3","false","5","stims/img/CFD-LF-225-164-N.jpg","Leslie","7","stims/img/CFD-WM-231-112-N.jpg","Anthony","","",""
"","null","fixation","html-keyboard-response","140","339266","0.0-3.0-0.67","4","3","<div style = ""font-size:60px;""> + </div>","null","","","","","","","","","","",""
"","null","learning_trial","html-keyboard-response","141","341774","0.0-3.0-1.67","4","3","
    <div class = 'grid-container'>
        <div class='header-text'> Friends </div>
        <div>
            Leah
            <img width='150' style='border:2px black solid;' src='stims/img/CFD-BF-210-130-N.jpg'>
        </div>
        <div> &nbsp; + &nbsp; </div>
        <div>
            Elaine
            <img width='150' style='border:2px black solid;' src='stims/img/CFD-AF-250-200-N.jpg'>
        </div>
        <div class='header-text'> &nbsp; </div>
    </div>
    ","null","3","false","9","stims/img/CFD-AF-250-200-N.jpg","Elaine","11","stims/img/CFD-BF-210-130-N.jpg","Leah","","",""
"","2979","break","html-keyboard-response","142","344755","0.0-3.0-2.67-0.67","4","3","If you'd like to take a break before continuing, 
    please do so now. <p>To continue, please press the spacebar.</p>"," ","","","","","","","","","","",""
"","null","fixation","html-keyboard-response","143","345260","0.0-3.0-0.68","4","3","<div style = ""font-size:60px;""> + </div>","null","","","","","","","","","","",""
"","null","learning_trial","html-keyboard-response","144","347767","0.0-3.0-1.68","4","3","
    <div class = 'grid-container'>
        <div class='header-text'> Friends </div>
        <div>
            Alexander
            <img width='150' style='border:2px black solid;' src='stims/img/CFD-LM-247-095-N.jpg'>
        </div>
        <div> &nbsp; + &nbsp; </div>
        <div>
            Leah
            <img width='150' style='border:2px black solid;' src='stims/img/CFD-BF-210-130-N.jpg'>
        </div>
        <div class='header-text'> &nbsp; </div>
    </div>
    ","null","4","false","11","stims/img/CFD-BF-210-130-N.jpg","Leah","12","stims/img/CFD-LM-247-095-N.jpg","Alexander","","",""
"","null","fixation","html-keyboard-response","145","348271","0.0-3.0-0.69","4","3","<div style = ""font-size:60px;""> + </div>","null","","","","","","","","","","",""
"","null","learning_trial","html-keyboard-response","146","350777","0.0-3.0-1.69","4","3","
    <div class = 'grid-container'>
        <div class='header-text'> Friends </div>
        <div>
            Leah
            <img width='150' style='border:2px black solid;' src='stims/img/CFD-BF-210-130-N.jpg'>
        </div>
        <div> &nbsp; + &nbsp; </div>
        <div>
            Elaine
            <img width='150' style='border:2px black solid;' src='stims/img/CFD-AF-250-200-N.jpg'>
        </div>
        <div class='header-text'> &nbsp; </div>
    </div>
    ","null","4","false","9","stims/img/CFD-AF-250-200-N.jpg","Elaine","11","stims/img/CFD-BF-210-130-N.jpg","Leah","","",""
"","null","fixation","html-keyboard-response","147","351279","0.0-3.0-0.70","4","3","<div style = ""font-size:60px;""> + </div>","null","","","","","","","","","","",""
"","null","learning_trial","html-keyboard-response","148","353786","0.0-3.0-1.70","4","3","
    <div class = 'grid-container'>
        <div class='header-text'> Friends </div>
        <div>
            Evan
            <img width='150' style='border:2px black solid;' src='stims/img/CFD-AM-201-076-N.jpg'>
        </div>
        <div> &nbsp; + &nbsp; </div>
        <div>
            Alexander
            <img width='150' style='border:2px black solid;' src='stims/img/CFD-LM-247-095-N.jpg'>
        </div>
        <div class='header-text'> &nbsp; </div>
    </div>
    ","null","4","false","12","stims/img/CFD-LM-247-095-N.jpg","Alexander","13","stims/img/CFD-AM-201-076-N.jpg","Evan","","",""
"","null","fixation","html-keyboard-response","149","354293","0.0-3.0-0.71","4","3","<div style = ""font-size:60px;""> + </div>","null","","","","","","","","","","",""
"","null","learning_trial","html-keyboard-response","150","356799","0.0-3.0-1.71","4","3","
    <div class = 'grid-container'>
        <div class='header-text'> Friends </div>
        <div>
            Jacob
            <img width='150' style='border:2px black solid;' src='stims/img/CFD-LM-211-128-N.jpg'>
        </div>
        <div> &nbsp; + &nbsp; </div>
        <div>
            Arianna
            <img width='150' style='border:2px black solid;' src='stims/img/CFD-LF-219-223-N.jpg'>
        </div>
        <div class='header-text'> &nbsp; </div>
    </div>
    ","null","4","false","2","stims/img/CFD-LF-219-223-N.jpg","Arianna","4","stims/img/CFD-LM-211-128-N.jpg","Jacob","","",""
"","null","fixation","html-keyboard-response","151","357306","0.0-3.0-0.72","4","3","<div style = ""font-size:60px;""> + </div>","null","","","","","","","","","","",""
"","null","learning_trial","html-keyboard-response","152","359813","0.0-3.0-1.72","4","3","
    <div class = 'grid-container'>
        <div class='header-text'> Friends </div>
        <div>
            Anna
            <img width='150' style='border:2px black solid;' src='stims/img/CFD-WF-214-122-N.jpg'>
        </div>
        <div> &nbsp; + &nbsp; </div>
        <div>
            Elaine
            <img width='150' style='border:2px black solid;' src='stims/img/CFD-AF-250-200-N.jpg'>
        </div>
        <div class='header-text'> &nbsp; </div>
    </div>
    ","null","4","true","8","stims/img/CFD-WF-214-122-N.jpg","Anna","9","stims/img/CFD-AF-250-200-N.jpg","Elaine","","",""
"","null","fixation","html-keyboard-response","153","360319","0.0-3.0-0.73","4","3","<div style = ""font-size:60px;""> + </div>","null","","","","","","","","","","",""
"","null","learning_trial","html-keyboard-response","154","362825","0.0-3.0-1.73","4","3","
    <div class = 'grid-container'>
        <div class='header-text'> Friends </div>
        <div>
            Anthony
            <img width='150' style='border:2px black solid;' src='stims/img/CFD-WM-231-112-N.jpg'>
        </div>
        <div> &nbsp; + &nbsp; </div>
        <div>
            Sophia
            <img width='150' style='border:2px black solid;' src='stims/img/CFD-WF-212-050-N.jpg'>
        </div>
        <div class='header-text'> &nbsp; </div>
    </div>
    ","null","4","false","6","stims/img/CFD-WF-212-050-N.jpg","Sophia","7","stims/img/CFD-WM-231-112-N.jpg","Anthony","","",""
"","null","fixation","html-keyboard-response","155","363331","0.0-3.0-0.74","4","3","<div style = ""font-size:60px;""> + </div>","null","","","","","","","","","","",""
"","null","learning_trial","html-keyboard-response","156","365839","0.0-3.0-1.74","4","3","
    <div class = 'grid-container'>
        <div class='header-text'> Friends </div>
        <div>
            Jasmine
            <img width='150' style='border:2px black solid;' src='stims/img/CFD-AF-211-066-N.jpg'>
        </div>
        <div> &nbsp; + &nbsp; </div>
        <div>
            Arianna
            <img width='150' style='border:2px black solid;' src='stims/img/CFD-LF-219-223-N.jpg'>
        </div>
        <div class='header-text'> &nbsp; </div>
    </div>
    ","null","4","false","2","stims/img/CFD-LF-219-223-N.jpg","Arianna","3","stims/img/CFD-AF-211-066-N.jpg","Jasmine","","",""
"","null","fixation","html-keyboard-response","157","366346","0.0-3.0-0.75","4","3","<div style = ""font-size:60px;""> + </div>","null","","","","","","","","","","",""
"","null","learning_trial","html-keyboard-response","158","368853","0.0-3.0-1.75","4","3","
    <div class = 'grid-container'>
        <div class='header-text'> Friends </div>
        <div>
            David
            <img width='150' style='border:2px black solid;' src='stims/img/CFD-BM-201-077-N.jpg'>
        </div>
        <div> &nbsp; + &nbsp; </div>
        <div>
            Alexander
            <img width='150' style='border:2px black solid;' src='stims/img/CFD-LM-247-095-N.jpg'>
        </div>
        <div class='header-text'> &nbsp; </div>
    </div>
    ","null","4","true","10","stims/img/CFD-BM-201-077-N.jpg","David","12","stims/img/CFD-LM-247-095-N.jpg","Alexander","","",""
"","null","fixation","html-keyboard-response","159","369359","0.0-3.0-0.76","4","3","<div style = ""font-size:60px;""> + </div>","null","","","","","","","","","","",""
"","null","learning_trial","html-keyboard-response","160","371866","0.0-3.0-1.76","4","3","
    <div class = 'grid-container'>
        <div class='header-text'> Friends </div>
        <div>
            Jacob
            <img width='150' style='border:2px black solid;' src='stims/img/CFD-LM-211-128-N.jpg'>
        </div>
        <div> &nbsp; + &nbsp; </div>
        <div>
            Jasmine
            <img width='150' style='border:2px black solid;' src='stims/img/CFD-AF-211-066-N.jpg'>
        </div>
        <div class='header-text'> &nbsp; </div>
    </div>
    ","null","4","false","3","stims/img/CFD-AF-211-066-N.jpg","Jasmine","4","stims/img/CFD-LM-211-128-N.jpg","Jacob","","",""
"","null","fixation","html-keyboard-response","161","372372","0.0-3.0-0.77","4","3","<div style = ""font-size:60px;""> + </div>","null","","","","","","","","","","",""
"","null","learning_trial","html-keyboard-response","162","374879","0.0-3.0-1.77","4","3","
    <div class = 'grid-container'>
        <div class='header-text'> Friends </div>
        <div>
            Leslie
            <img width='150' style='border:2px black solid;' src='stims/img/CFD-LF-225-164-N.jpg'>
        </div>
        <div> &nbsp; + &nbsp; </div>
        <div>
            Jacob
            <img width='150' style='border:2px black solid;' src='stims/img/CFD-LM-211-128-N.jpg'>
        </div>
        <div class='header-text'> &nbsp; </div>
    </div>
    ","null","4","false","4","stims/img/CFD-LM-211-128-N.jpg","Jacob","5","stims/img/CFD-LF-225-164-N.jpg","Leslie","","",""
"","null","fixation","html-keyboard-response","163","375386","0.0-3.0-0.78","4","3","<div style = ""font-size:60px;""> + </div>","null","","","","","","","","","","",""
"","null","learning_trial","html-keyboard-response","164","377891","0.0-3.0-1.78","4","3","
    <div class = 'grid-container'>
        <div class='header-text'> Friends </div>
        <div>
            Jacob
            <img width='150' style='border:2px black solid;' src='stims/img/CFD-LM-211-128-N.jpg'>
        </div>
        <div> &nbsp; + &nbsp; </div>
        <div>
            Sophia
            <img width='150' style='border:2px black solid;' src='stims/img/CFD-WF-212-050-N.jpg'>
        </div>
        <div class='header-text'> &nbsp; </div>
    </div>
    ","null","4","true","4","stims/img/CFD-LM-211-128-N.jpg","Jacob","6","stims/img/CFD-WF-212-050-N.jpg","Sophia","","",""
"","null","fixation","html-keyboard-response","165","378393","0.0-3.0-0.79","4","3","<div style = ""font-size:60px;""> + </div>","null","","","","","","","","","","",""
"","null","learning_trial","html-keyboard-response","166","380900","0.0-3.0-1.79","4","3","
    <div class = 'grid-container'>
        <div class='header-text'> Friends </div>
        <div>
            David
            <img width='150' style='border:2px black solid;' src='stims/img/CFD-BM-201-077-N.jpg'>
        </div>
        <div> &nbsp; + &nbsp; </div>
        <div>
            Anna
            <img width='150' style='border:2px black solid;' src='stims/img/CFD-WF-214-122-N.jpg'>
        </div>
        <div class='header-text'> &nbsp; </div>
    </div>
    ","null","4","false","8","stims/img/CFD-WF-214-122-N.jpg","Anna","10","stims/img/CFD-BM-201-077-N.jpg","David","","",""
"","null","fixation","html-keyboard-response","167","381406","0.0-3.0-0.80","4","3","<div style = ""font-size:60px;""> + </div>","null","","","","","","","","","","",""
"","null","learning_trial","html-keyboard-response","168","383913","0.0-3.0-1.80","4","3","
    <div class = 'grid-container'>
        <div class='header-text'> Friends </div>
        <div>
            Anthony
            <img width='150' style='border:2px black solid;' src='stims/img/CFD-WM-231-112-N.jpg'>
        </div>
        <div> &nbsp; + &nbsp; </div>
        <div>
            Leslie
            <img width='150' style='border:2px black solid;' src='stims/img/CFD-LF-225-164-N.jpg'>
        </div>
        <div class='header-text'> &nbsp; </div>
    </div>
    ","null","4","false","5","stims/img/CFD-LF-225-164-N.jpg","Leslie","7","stims/img/CFD-WM-231-112-N.jpg","Anthony","","",""
"","null","fixation","html-keyboard-response","169","384419","0.0-3.0-0.81","4","3","<div style = ""font-size:60px;""> + </div>","null","","","","","","","","","","",""
"","null","learning_trial","html-keyboard-response","170","386925","0.0-3.0-1.81","4","3","
    <div class = 'grid-container'>
        <div class='header-text'> Friends </div>
        <div>
            Evan
            <img width='150' style='border:2px black solid;' src='stims/img/CFD-AM-201-076-N.jpg'>
        </div>
        <div> &nbsp; + &nbsp; </div>
        <div>
            Leah
            <img width='150' style='border:2px black solid;' src='stims/img/CFD-BF-210-130-N.jpg'>
        </div>
        <div class='header-text'> &nbsp; </div>
    </div>
    ","null","4","false","11","stims/img/CFD-BF-210-130-N.jpg","Leah","13","stims/img/CFD-AM-201-076-N.jpg","Evan","","",""
"","null","fixation","html-keyboard-response","171","387428","0.0-3.0-0.82","4","3","<div style = ""font-size:60px;""> + </div>","null","","","","","","","","","","",""
"","null","learning_trial","html-keyboard-response","172","389934","0.0-3.0-1.82","4","3","
    <div class = 'grid-container'>
        <div class='header-text'> Friends </div>
        <div>
            Jasmine
            <img width='150' style='border:2px black solid;' src='stims/img/CFD-AF-211-066-N.jpg'>
        </div>
        <div> &nbsp; + &nbsp; </div>
        <div>
            Leslie
            <img width='150' style='border:2px black solid;' src='stims/img/CFD-LF-225-164-N.jpg'>
        </div>
        <div class='header-text'> &nbsp; </div>
    </div>
    ","null","4","true","3","stims/img/CFD-AF-211-066-N.jpg","Jasmine","5","stims/img/CFD-LF-225-164-N.jpg","Leslie","","",""
"","null","fixation","html-keyboard-response","173","390441","0.0-3.0-0.83","4","3","<div style = ""font-size:60px;""> + </div>","null","","","","","","","","","","",""
"","null","learning_trial","html-keyboard-response","174","392948","0.0-3.0-1.83","4","3","
    <div class = 'grid-container'>
        <div class='header-text'> Friends </div>
        <div>
            Arianna
            <img width='150' style='border:2px black solid;' src='stims/img/CFD-LF-219-223-N.jpg'>
        </div>
        <div> &nbsp; + &nbsp; </div>
        <div>
            Amir
            <img width='150' style='border:2px black solid;' src='stims/img/CFD-BM-237-188-N.jpg'>
        </div>
        <div class='header-text'> &nbsp; </div>
    </div>
    ","null","4","false","1","stims/img/CFD-BM-237-188-N.jpg","Amir","2","stims/img/CFD-LF-219-223-N.jpg","Arianna","","",""
"","null","fixation","html-keyboard-response","175","393454","0.0-3.0-0.84","4","3","<div style = ""font-size:60px;""> + </div>","null","","","","","","","","","","",""
"","null","learning_trial","html-keyboard-response","176","395961","0.0-3.0-1.84","4","3","
    <div class = 'grid-container'>
        <div class='header-text'> Friends </div>
        <div>
            Anna
            <img width='150' style='border:2px black solid;' src='stims/img/CFD-WF-214-122-N.jpg'>
        </div>
        <div> &nbsp; + &nbsp; </div>
        <div>
            Amir
            <img width='150' style='border:2px black solid;' src='stims/img/CFD-BM-237-188-N.jpg'>
        </div>
        <div class='header-text'> &nbsp; </div>
    </div>
    ","null","4","false","1","stims/img/CFD-BM-237-188-N.jpg","Amir","8","stims/img/CFD-WF-214-122-N.jpg","Anna","","",""
"","1527","break","html-keyboard-response","177","397489","0.0-3.0-2.84-0.84","4","3","If you'd like to take a break before continuing, 
    please do so now. <p>To continue, please press the spacebar.</p>"," ","","","","","","","","","","",""
"","null","fixation","html-keyboard-response","178","397995","0.0-3.0-0.85","4","3","<div style = ""font-size:60px;""> + </div>","null","","","","","","","","","","",""
"","null","learning_trial","html-keyboard-response","179","400502","0.0-3.0-1.85","4","3","
    <div class = 'grid-container'>
        <div class='header-text'> Friends </div>
        <div>
            Evan
            <img width='150' style='border:2px black solid;' src='stims/img/CFD-AM-201-076-N.jpg'>
        </div>
        <div> &nbsp; + &nbsp; </div>
        <div>
            Alexander
            <img width='150' style='border:2px black solid;' src='stims/img/CFD-LM-247-095-N.jpg'>
        </div>
        <div class='header-text'> &nbsp; </div>
    </div>
    ","null","5","false","12","stims/img/CFD-LM-247-095-N.jpg","Alexander","13","stims/img/CFD-AM-201-076-N.jpg","Evan","","",""
"","null","fixation","html-keyboard-response","180","401009","0.0-3.0-0.86","4","3","<div style = ""font-size:60px;""> + </div>","null","","","","","","","","","","",""
"","null","learning_trial","html-keyboard-response","181","403516","0.0-3.0-1.86","4","3","
    <div class = 'grid-container'>
        <div class='header-text'> Friends </div>
        <div>
            Jacob
            <img width='150' style='border:2px black solid;' src='stims/img/CFD-LM-211-128-N.jpg'>
        </div>
        <div> &nbsp; + &nbsp; </div>
        <div>
            Leslie
            <img width='150' style='border:2px black solid;' src='stims/img/CFD-LF-225-164-N.jpg'>
        </div>
        <div class='header-text'> &nbsp; </div>
    </div>
    ","null","5","true","4","stims/img/CFD-LM-211-128-N.jpg","Jacob","5","stims/img/CFD-LF-225-164-N.jpg","Leslie","","",""
"","null","fixation","html-keyboard-response","182","404022","0.0-3.0-0.87","4","3","<div style = ""font-size:60px;""> + </div>","null","","","","","","","","","","",""
"","null","learning_trial","html-keyboard-response","183","406529","0.0-3.0-1.87","4","3","
    <div class = 'grid-container'>
        <div class='header-text'> Friends </div>
        <div>
            Leah
            <img width='150' style='border:2px black solid;' src='stims/img/CFD-BF-210-130-N.jpg'>
        </div>
        <div> &nbsp; + &nbsp; </div>
        <div>
            Evan
            <img width='150' style='border:2px black solid;' src='stims/img/CFD-AM-201-076-N.jpg'>
        </div>
        <div class='header-text'> &nbsp; </div>
    </div>
    ","null","5","true","11","stims/img/CFD-BF-210-130-N.jpg","Leah","13","stims/img/CFD-AM-201-076-N.jpg","Evan","","",""
"","null","fixation","html-keyboard-response","184","407035","0.0-3.0-0.88","4","3","<div style = ""font-size:60px;""> + </div>","null","","","","","","","","","","",""
"","null","learning_trial","html-keyboard-response","185","409542","0.0-3.0-1.88","4","3","
    <div class = 'grid-container'>
        <div class='header-text'> Friends </div>
        <div>
            Sophia
            <img width='150' style='border:2px black solid;' src='stims/img/CFD-WF-212-050-N.jpg'>
        </div>
        <div> &nbsp; + &nbsp; </div>
        <div>
            Anthony
            <img width='150' style='border:2px black solid;' src='stims/img/CFD-WM-231-112-N.jpg'>
        </div>
        <div class='header-text'> &nbsp; </div>
    </div>
    ","null","5","true","6","stims/img/CFD-WF-212-050-N.jpg","Sophia","7","stims/img/CFD-WM-231-112-N.jpg","Anthony","","",""
"","null","fixation","html-keyboard-response","186","410048","0.0-3.0-0.89","4","3","<div style = ""font-size:60px;""> + </div>","null","","","","","","","","","","",""
"","null","learning_trial","html-keyboard-response","187","412555","0.0-3.0-1.89","4","3","
    <div class = 'grid-container'>
        <div class='header-text'> Friends </div>
        <div>
            Arianna
            <img width='150' style='border:2px black solid;' src='stims/img/CFD-LF-219-223-N.jpg'>
        </div>
        <div> &nbsp; + &nbsp; </div>
        <div>
            Jasmine
            <img width='150' style='border:2px black solid;' src='stims/img/CFD-AF-211-066-N.jpg'>
        </div>
        <div class='header-text'> &nbsp; </div>
    </div>
    ","null","5","true","2","stims/img/CFD-LF-219-223-N.jpg","Arianna","3","stims/img/CFD-AF-211-066-N.jpg","Jasmine","","",""
"","null","fixation","html-keyboard-response","188","413062","0.0-3.0-0.90","4","3","<div style = ""font-size:60px;""> + </div>","null","","","","","","","","","","",""
"","null","learning_trial","html-keyboard-response","189","415567","0.0-3.0-1.90","4","3","
    <div class = 'grid-container'>
        <div class='header-text'> Friends </div>
        <div>
            Elaine
            <img width='150' style='border:2px black solid;' src='stims/img/CFD-AF-250-200-N.jpg'>
        </div>
        <div> &nbsp; + &nbsp; </div>
        <div>
            Leah
            <img width='150' style='border:2px black solid;' src='stims/img/CFD-BF-210-130-N.jpg'>
        </div>
        <div class='header-text'> &nbsp; </div>
    </div>
    ","null","5","true","9","stims/img/CFD-AF-250-200-N.jpg","Elaine","11","stims/img/CFD-BF-210-130-N.jpg","Leah","","",""
"","null","fixation","html-keyboard-response","190","416073","0.0-3.0-0.91","4","3","<div style = ""font-size:60px;""> + </div>","null","","","","","","","","","","",""
"","null","learning_trial","html-keyboard-response","191","418575","0.0-3.0-1.91","4","3","
    <div class = 'grid-container'>
        <div class='header-text'> Friends </div>
        <div>
            Jacob
            <img width='150' style='border:2px black solid;' src='stims/img/CFD-LM-211-128-N.jpg'>
        </div>
        <div> &nbsp; + &nbsp; </div>
        <div>
            Jasmine
            <img width='150' style='border:2px black solid;' src='stims/img/CFD-AF-211-066-N.jpg'>
        </div>
        <div class='header-text'> &nbsp; </div>
    </div>
    ","null","5","false","3","stims/img/CFD-AF-211-066-N.jpg","Jasmine","4","stims/img/CFD-LM-211-128-N.jpg","Jacob","","",""
"","null","fixation","html-keyboard-response","192","419080","0.0-3.0-0.92","4","3","<div style = ""font-size:60px;""> + </div>","null","","","","","","","","","","",""
"","null","learning_trial","html-keyboard-response","193","421587","0.0-3.0-1.92","4","3","
    <div class = 'grid-container'>
        <div class='header-text'> Friends </div>
        <div>
            Anthony
            <img width='150' style='border:2px black solid;' src='stims/img/CFD-WM-231-112-N.jpg'>
        </div>
        <div> &nbsp; + &nbsp; </div>
        <div>
            Leslie
            <img width='150' style='border:2px black solid;' src='stims/img/CFD-LF-225-164-N.jpg'>
        </div>
        <div class='header-text'> &nbsp; </div>
    </div>
    ","null","5","false","5","stims/img/CFD-LF-225-164-N.jpg","Leslie","7","stims/img/CFD-WM-231-112-N.jpg","Anthony","","",""
"","null","fixation","html-keyboard-response","194","422093","0.0-3.0-0.93","4","3","<div style = ""font-size:60px;""> + </div>","null","","","","","","","","","","",""
"","null","learning_trial","html-keyboard-response","195","424599","0.0-3.0-1.93","4","3","
    <div class = 'grid-container'>
        <div class='header-text'> Friends </div>
        <div>
            Amir
            <img width='150' style='border:2px black solid;' src='stims/img/CFD-BM-237-188-N.jpg'>
        </div>
        <div> &nbsp; + &nbsp; </div>
        <div>
            Arianna
            <img width='150' style='border:2px black solid;' src='stims/img/CFD-LF-219-223-N.jpg'>
        </div>
        <div class='header-text'> &nbsp; </div>
    </div>
    ","null","5","true","1","stims/img/CFD-BM-237-188-N.jpg","Amir","2","stims/img/CFD-LF-219-223-N.jpg","Arianna","","",""
"","null","fixation","html-keyboard-response","196","425106","0.0-3.0-0.94","4","3","<div style = ""font-size:60px;""> + </div>","null","","","","","","","","","","",""
"","null","learning_trial","html-keyboard-response","197","427612","0.0-3.0-1.94","4","3","
    <div class = 'grid-container'>
        <div class='header-text'> Friends </div>
        <div>
            Alexander
            <img width='150' style='border:2px black solid;' src='stims/img/CFD-LM-247-095-N.jpg'>
        </div>
        <div> &nbsp; + &nbsp; </div>
        <div>
            Leah
            <img width='150' style='border:2px black solid;' src='stims/img/CFD-BF-210-130-N.jpg'>
        </div>
        <div class='header-text'> &nbsp; </div>
    </div>
    ","null","5","false","11","stims/img/CFD-BF-210-130-N.jpg","Leah","12","stims/img/CFD-LM-247-095-N.jpg","Alexander","","",""
"","null","fixation","html-keyboard-response","198","428119","0.0-3.0-0.95","4","3","<div style = ""font-size:60px;""> + </div>","null","","","","","","","","","","",""
"","null","learning_trial","html-keyboard-response","199","430625","0.0-3.0-1.95","4","3","
    <div class = 'grid-container'>
        <div class='header-text'> Friends </div>
        <div>
            Sophia
            <img width='150' style='border:2px black solid;' src='stims/img/CFD-WF-212-050-N.jpg'>
        </div>
        <div> &nbsp; + &nbsp; </div>
        <div>
            Jacob
            <img width='150' style='border:2px black solid;' src='stims/img/CFD-LM-211-128-N.jpg'>
        </div>
        <div class='header-text'> &nbsp; </div>
    </div>
    ","null","5","false","4","stims/img/CFD-LM-211-128-N.jpg","Jacob","6","stims/img/CFD-WF-212-050-N.jpg","Sophia","","",""
"","null","fixation","html-keyboard-response","200","431132","0.0-3.0-0.96","4","3","<div style = ""font-size:60px;""> + </div>","null","","","","","","","","","","",""
"","null","learning_trial","html-keyboard-response","201","433635","0.0-3.0-1.96","4","3","
    <div class = 'grid-container'>
        <div class='header-text'> Friends </div>
        <div>
            Alexander
            <img width='150' style='border:2px black solid;' src='stims/img/CFD-LM-247-095-N.jpg'>
        </div>
        <div> &nbsp; + &nbsp; </div>
        <div>
            David
            <img width='150' style='border:2px black solid;' src='stims/img/CFD-BM-201-077-N.jpg'>
        </div>
        <div class='header-text'> &nbsp; </div>
    </div>
    ","null","5","false","10","stims/img/CFD-BM-201-077-N.jpg","David","12","stims/img/CFD-LM-247-095-N.jpg","Alexander","","",""
"","null","fixation","html-keyboard-response","202","434142","0.0-3.0-0.97","4","3","<div style = ""font-size:60px;""> + </div>","null","","","","","","","","","","",""
"","null","learning_trial","html-keyboard-response","203","436651","0.0-3.0-1.97","4","3","
    <div class = 'grid-container'>
        <div class='header-text'> Friends </div>
        <div>
            Elaine
            <img width='150' style='border:2px black solid;' src='stims/img/CFD-AF-250-200-N.jpg'>
        </div>
        <div> &nbsp; + &nbsp; </div>
        <div>
            Anna
            <img width='150' style='border:2px black solid;' src='stims/img/CFD-WF-214-122-N.jpg'>
        </div>
        <div class='header-text'> &nbsp; </div>
    </div>
    ","null","5","false","8","stims/img/CFD-WF-214-122-N.jpg","Anna","9","stims/img/CFD-AF-250-200-N.jpg","Elaine","","",""
"","null","fixation","html-keyboard-response","204","437155","0.0-3.0-0.98","4","3","<div style = ""font-size:60px;""> + </div>","null","","","","","","","","","","",""
"","null","learning_trial","html-keyboard-response","205","439663","0.0-3.0-1.98","4","3","
    <div class = 'grid-container'>
        <div class='header-text'> Friends </div>
        <div>
            Jasmine
            <img width='150' style='border:2px black solid;' src='stims/img/CFD-AF-211-066-N.jpg'>
        </div>
        <div> &nbsp; + &nbsp; </div>
        <div>
            Leslie
            <img width='150' style='border:2px black solid;' src='stims/img/CFD-LF-225-164-N.jpg'>
        </div>
        <div class='header-text'> &nbsp; </div>
    </div>
    ","null","5","true","3","stims/img/CFD-AF-211-066-N.jpg","Jasmine","5","stims/img/CFD-LF-225-164-N.jpg","Leslie","","",""
"","null","fixation","html-keyboard-response","206","440168","0.0-3.0-0.99","4","3","<div style = ""font-size:60px;""> + </div>","null","","","","","","","","","","",""
"","null","learning_trial","html-keyboard-response","207","442675","0.0-3.0-1.99","4","3","
    <div class = 'grid-container'>
        <div class='header-text'> Friends </div>
        <div>
            Amir
            <img width='150' style='border:2px black solid;' src='stims/img/CFD-BM-237-188-N.jpg'>
        </div>
        <div> &nbsp; + &nbsp; </div>
        <div>
            Anna
            <img width='150' style='border:2px black solid;' src='stims/img/CFD-WF-214-122-N.jpg'>
        </div>
        <div class='header-text'> &nbsp; </div>
    </div>
    ","null","5","true","1","stims/img/CFD-BM-237-188-N.jpg","Amir","8","stims/img/CFD-WF-214-122-N.jpg","Anna","","",""
"","null","fixation","html-keyboard-response","208","443182","0.0-3.0-0.100","4","3","<div style = ""font-size:60px;""> + </div>","null","","","","","","","","","","",""
"","null","learning_trial","html-keyboard-response","209","445688","0.0-3.0-1.100","4","3","
    <div class = 'grid-container'>
        <div class='header-text'> Friends </div>
        <div>
            David
            <img width='150' style='border:2px black solid;' src='stims/img/CFD-BM-201-077-N.jpg'>
        </div>
        <div> &nbsp; + &nbsp; </div>
        <div>
            Anna
            <img width='150' style='border:2px black solid;' src='stims/img/CFD-WF-214-122-N.jpg'>
        </div>
        <div class='header-text'> &nbsp; </div>
    </div>
    ","null","5","false","8","stims/img/CFD-WF-214-122-N.jpg","Anna","10","stims/img/CFD-BM-201-077-N.jpg","David","","",""
"","null","fixation","html-keyboard-response","210","446195","0.0-3.0-0.101","4","3","<div style = ""font-size:60px;""> + </div>","null","","","","","","","","","","",""
"","null","learning_trial","html-keyboard-response","211","448699","0.0-3.0-1.101","4","3","
    <div class = 'grid-container'>
        <div class='header-text'> Friends </div>
        <div>
            Arianna
            <img width='150' style='border:2px black solid;' src='stims/img/CFD-LF-219-223-N.jpg'>
        </div>
        <div> &nbsp; + &nbsp; </div>
        <div>
            Jacob
            <img width='150' style='border:2px black solid;' src='stims/img/CFD-LM-211-128-N.jpg'>
        </div>
        <div class='header-text'> &nbsp; </div>
    </div>
    ","null","5","true","2","stims/img/CFD-LF-219-223-N.jpg","Arianna","4","stims/img/CFD-LM-211-128-N.jpg","Jacob","","",""
"","999","break","html-keyboard-response","212","449701","0.0-3.0-2.101-0.101","4","3","If you'd like to take a break before continuing, 
    please do so now. <p>To continue, please press the spacebar.</p>"," ","","","","","","","","","","",""
"","null","fixation","html-keyboard-response","213","450207","0.0-3.0-0.102","4","3","<div style = ""font-size:60px;""> + </div>","null","","","","","","","","","","",""
"","null","learning_trial","html-keyboard-response","214","452713","0.0-3.0-1.102","4","3","
    <div class = 'grid-container'>
        <div class='header-text'> Friends </div>
        <div>
            David
            <img width='150' style='border:2px black solid;' src='stims/img/CFD-BM-201-077-N.jpg'>
        </div>
        <div> &nbsp; + &nbsp; </div>
        <div>
            Anna
            <img width='150' style='border:2px black solid;' src='stims/img/CFD-WF-214-122-N.jpg'>
        </div>
        <div class='header-text'> &nbsp; </div>
    </div>
    ","null","6","false","8","stims/img/CFD-WF-214-122-N.jpg","Anna","10","stims/img/CFD-BM-201-077-N.jpg","David","","",""
"","null","fixation","html-keyboard-response","215","453220","0.0-3.0-0.103","4","3","<div style = ""font-size:60px;""> + </div>","null","","","","","","","","","","",""
"","null","learning_trial","html-keyboard-response","216","455727","0.0-3.0-1.103","4","3","
    <div class = 'grid-container'>
        <div class='header-text'> Friends </div>
        <div>
            Jacob
            <img width='150' style='border:2px black solid;' src='stims/img/CFD-LM-211-128-N.jpg'>
        </div>
        <div> &nbsp; + &nbsp; </div>
        <div>
            Sophia
            <img width='150' style='border:2px black solid;' src='stims/img/CFD-WF-212-050-N.jpg'>
        </div>
        <div class='header-text'> &nbsp; </div>
    </div>
    ","null","6","true","4","stims/img/CFD-LM-211-128-N.jpg","Jacob","6","stims/img/CFD-WF-212-050-N.jpg","Sophia","","",""
"","null","fixation","html-keyboard-response","217","456233","0.0-3.0-0.104","4","3","<div style = ""font-size:60px;""> + </div>","null","","","","","","","","","","",""
"","null","learning_trial","html-keyboard-response","218","458740","0.0-3.0-1.104","4","3","
    <div class = 'grid-container'>
        <div class='header-text'> Friends </div>
        <div>
            Jacob
            <img width='150' style='border:2px black solid;' src='stims/img/CFD-LM-211-128-N.jpg'>
        </div>
        <div> &nbsp; + &nbsp; </div>
        <div>
            Arianna
            <img width='150' style='border:2px black solid;' src='stims/img/CFD-LF-219-223-N.jpg'>
        </div>
        <div class='header-text'> &nbsp; </div>
    </div>
    ","null","6","false","2","stims/img/CFD-LF-219-223-N.jpg","Arianna","4","stims/img/CFD-LM-211-128-N.jpg","Jacob","","",""
"","null","fixation","html-keyboard-response","219","459246","0.0-3.0-0.105","4","3","<div style = ""font-size:60px;""> + </div>","null","","","","","","","","","","",""
"","null","learning_trial","html-keyboard-response","220","461752","0.0-3.0-1.105","4","3","
    <div class = 'grid-container'>
        <div class='header-text'> Friends </div>
        <div>
            Alexander
            <img width='150' style='border:2px black solid;' src='stims/img/CFD-LM-247-095-N.jpg'>
        </div>
        <div> &nbsp; + &nbsp; </div>
        <div>
            David
            <img width='150' style='border:2px black solid;' src='stims/img/CFD-BM-201-077-N.jpg'>
        </div>
        <div class='header-text'> &nbsp; </div>
    </div>
    ","null","6","false","10","stims/img/CFD-BM-201-077-N.jpg","David","12","stims/img/CFD-LM-247-095-N.jpg","Alexander","","",""
"","null","fixation","html-keyboard-response","221","462254","0.0-3.0-0.106","4","3","<div style = ""font-size:60px;""> + </div>","null","","","","","","","","","","",""
"","null","learning_trial","html-keyboard-response","222","464761","0.0-3.0-1.106","4","3","
    <div class = 'grid-container'>
        <div class='header-text'> Friends </div>
        <div>
            Elaine
            <img width='150' style='border:2px black solid;' src='stims/img/CFD-AF-250-200-N.jpg'>
        </div>
        <div> &nbsp; + &nbsp; </div>
        <div>
            Leah
            <img width='150' style='border:2px black solid;' src='stims/img/CFD-BF-210-130-N.jpg'>
        </div>
        <div class='header-text'> &nbsp; </div>
    </div>
    ","null","6","true","9","stims/img/CFD-AF-250-200-N.jpg","Elaine","11","stims/img/CFD-BF-210-130-N.jpg","Leah","","",""
"","null","fixation","html-keyboard-response","223","465267","0.0-3.0-0.107","4","3","<div style = ""font-size:60px;""> + </div>","null","","","","","","","","","","",""
"","null","learning_trial","html-keyboard-response","224","467775","0.0-3.0-1.107","4","3","
    <div class = 'grid-container'>
        <div class='header-text'> Friends </div>
        <div>
            Elaine
            <img width='150' style='border:2px black solid;' src='stims/img/CFD-AF-250-200-N.jpg'>
        </div>
        <div> &nbsp; + &nbsp; </div>
        <div>
            Anna
            <img width='150' style='border:2px black solid;' src='stims/img/CFD-WF-214-122-N.jpg'>
        </div>
        <div class='header-text'> &nbsp; </div>
    </div>
    ","null","6","false","8","stims/img/CFD-WF-214-122-N.jpg","Anna","9","stims/img/CFD-AF-250-200-N.jpg","Elaine","","",""
"","null","fixation","html-keyboard-response","225","468278","0.0-3.0-0.108","4","3","<div style = ""font-size:60px;""> + </div>","null","","","","","","","","","","",""
"","null","learning_trial","html-keyboard-response","226","470785","0.0-3.0-1.108","4","3","
    <div class = 'grid-container'>
        <div class='header-text'> Friends </div>
        <div>
            Leah
            <img width='150' style='border:2px black solid;' src='stims/img/CFD-BF-210-130-N.jpg'>
        </div>
        <div> &nbsp; + &nbsp; </div>
        <div>
            Evan
            <img width='150' style='border:2px black solid;' src='stims/img/CFD-AM-201-076-N.jpg'>
        </div>
        <div class='header-text'> &nbsp; </div>
    </div>
    ","null","6","true","11","stims/img/CFD-BF-210-130-N.jpg","Leah","13","stims/img/CFD-AM-201-076-N.jpg","Evan","","",""
"","null","fixation","html-keyboard-response","227","471289","0.0-3.0-0.109","4","3","<div style = ""font-size:60px;""> + </div>","null","","","","","","","","","","",""
"","null","learning_trial","html-keyboard-response","228","473795","0.0-3.0-1.109","4","3","
    <div class = 'grid-container'>
        <div class='header-text'> Friends </div>
        <div>
            Alexander
            <img width='150' style='border:2px black solid;' src='stims/img/CFD-LM-247-095-N.jpg'>
        </div>
        <div> &nbsp; + &nbsp; </div>
        <div>
            Evan
            <img width='150' style='border:2px black solid;' src='stims/img/CFD-AM-201-076-N.jpg'>
        </div>
        <div class='header-text'> &nbsp; </div>
    </div>
    ","null","6","true","12","stims/img/CFD-LM-247-095-N.jpg","Alexander","13","stims/img/CFD-AM-201-076-N.jpg","Evan","","",""
"","null","fixation","html-keyboard-response","229","474296","0.0-3.0-0.110","4","3","<div style = ""font-size:60px;""> + </div>","null","","","","","","","","","","",""
"","null","learning_trial","html-keyboard-response","230","476804","0.0-3.0-1.110","4","3","
    <div class = 'grid-container'>
        <div class='header-text'> Friends </div>
        <div>
            Jasmine
            <img width='150' style='border:2px black solid;' src='stims/img/CFD-AF-211-066-N.jpg'>
        </div>
        <div> &nbsp; + &nbsp; </div>
        <div>
            Jacob
            <img width='150' style='border:2px black solid;' src='stims/img/CFD-LM-211-128-N.jpg'>
        </div>
        <div class='header-text'> &nbsp; </div>
    </div>
    ","null","6","true","3","stims/img/CFD-AF-211-066-N.jpg","Jasmine","4","stims/img/CFD-LM-211-128-N.jpg","Jacob","","",""
"","null","fixation","html-keyboard-response","231","477309","0.0-3.0-0.111","4","3","<div style = ""font-size:60px;""> + </div>","null","","","","","","","","","","",""
"","null","learning_trial","html-keyboard-response","232","479817","0.0-3.0-1.111","4","3","
    <div class = 'grid-container'>
        <div class='header-text'> Friends </div>
        <div>
            Leslie
            <img width='150' style='border:2px black solid;' src='stims/img/CFD-LF-225-164-N.jpg'>
        </div>
        <div> &nbsp; + &nbsp; </div>
        <div>
            Jacob
            <img width='150' style='border:2px black solid;' src='stims/img/CFD-LM-211-128-N.jpg'>
        </div>
        <div class='header-text'> &nbsp; </div>
    </div>
    ","null","6","false","4","stims/img/CFD-LM-211-128-N.jpg","Jacob","5","stims/img/CFD-LF-225-164-N.jpg","Leslie","","",""
"","null","fixation","html-keyboard-response","233","480324","0.0-3.0-0.112","4","3","<div style = ""font-size:60px;""> + </div>","null","","","","","","","","","","",""
"","null","learning_trial","html-keyboard-response","234","482830","0.0-3.0-1.112","4","3","
    <div class = 'grid-container'>
        <div class='header-text'> Friends </div>
        <div>
            Jasmine
            <img width='150' style='border:2px black solid;' src='stims/img/CFD-AF-211-066-N.jpg'>
        </div>
        <div> &nbsp; + &nbsp; </div>
        <div>
            Leslie
            <img width='150' style='border:2px black solid;' src='stims/img/CFD-LF-225-164-N.jpg'>
        </div>
        <div class='header-text'> &nbsp; </div>
    </div>
    ","null","6","true","3","stims/img/CFD-AF-211-066-N.jpg","Jasmine","5","stims/img/CFD-LF-225-164-N.jpg","Leslie","","",""
"","null","fixation","html-keyboard-response","235","483336","0.0-3.0-0.113","4","3","<div style = ""font-size:60px;""> + </div>","null","","","","","","","","","","",""
