"view_history","rt","trial_purpose","trial_type","trial_index","time_elapsed","internal_node_id","sub_id","bonus","stimulus","response","rep","display_left","from_id","from_face","from_name","to_id","to_face","to_name","friendship","correct","slider_start"
"[{""page_index"":0,""viewing_time"":10195}]","10195","confirm_correct","instructions","0","10196","0.0-0.0","26","4","","","","","","","","","","","","",""
"[{""page_index"":0,""viewing_time"":45681},{""page_index"":1,""viewing_time"":3517},{""page_index"":2,""viewing_time"":4484}]","53682","instructions","instructions","1","63880","0.0-1.0","26","4","","","","","","","","","","","","",""
"[{""page_index"":0,""viewing_time"":2845},{""page_index"":1,""viewing_time"":2550},{""page_index"":2,""viewing_time"":10784},{""page_index"":3,""viewing_time"":3716}]","19896","instructions","instructions","2","83777","0.0-2.0","26","4","","","","","","","","","","","","",""
"","null","fixation","html-keyboard-response","3","84284","0.0-3.0-0.0","26","4","<div style = ""font-size:60px;""> + </div>","null","","","","","","","","","","",""
"","null","learning_trial","html-keyboard-response","4","86793","0.0-3.0-1.0","26","4","
    <div class = 'grid-container'>
        <div class='header-text'> Friends </div>
        <div>
            James
            <img width='150' style='border:2px black solid;' src='stims/img/CFD-WM-251-002-N.jpg'>
        </div>
        <div> &nbsp; + &nbsp; </div>
        <div>
            Ryan
            <img width='150' style='border:2px black solid;' src='stims/img/CFD-LM-244-068-N.jpg'>
        </div>
        <div class='header-text'> &nbsp; </div>
    </div>
    ","null","0","true","4","stims/img/CFD-WM-251-002-N.jpg","James","5","stims/img/CFD-LM-244-068-N.jpg","Ryan","","",""
"","null","fixation","html-keyboard-response","5","87300","0.0-3.0-0.1","26","4","<div style = ""font-size:60px;""> + </div>","null","","","","","","","","","","",""
"","null","learning_trial","html-keyboard-response","6","89808","0.0-3.0-1.1","26","4","
    <div class = 'grid-container'>
        <div class='header-text'> Friends </div>
        <div>
            James
            <img width='150' style='border:2px black solid;' src='stims/img/CFD-WM-251-002-N.jpg'>
        </div>
        <div> &nbsp; + &nbsp; </div>
        <div>
            Daniel
            <img width='150' style='border:2px black solid;' src='stims/img/CFD-AM-252-114-N.jpg'>
        </div>
        <div class='header-text'> &nbsp; </div>
    </div>
    ","null","0","false","3","stims/img/CFD-AM-252-114-N.jpg","Daniel","4","stims/img/CFD-WM-251-002-N.jpg","James","","",""
"","null","fixation","html-keyboard-response","7","90310","0.0-3.0-0.2","26","4","<div style = ""font-size:60px;""> + </div>","null","","","","","","","","","","",""
"","null","learning_trial","html-keyboard-response","8","92818","0.0-3.0-1.2","26","4","
    <div class = 'grid-container'>
        <div class='header-text'> Friends </div>
        <div>
            Hailey
            <img width='150' style='border:2px black solid;' src='stims/img/CFD-LF-208-127-N.jpg'>
        </div>
        <div> &nbsp; + &nbsp; </div>
        <div>
            Kimberly
            <img width='150' style='border:2px black solid;' src='stims/img/CFD-LF-213-079-N.jpg'>
        </div>
        <div class='header-text'> &nbsp; </div>
    </div>
    ","null","0","true","9","stims/img/CFD-LF-208-127-N.jpg","Hailey","11","stims/img/CFD-LF-213-079-N.jpg","Kimberly","","",""
"","null","fixation","html-keyboard-response","9","93327","0.0-3.0-0.3","26","4","<div style = ""font-size:60px;""> + </div>","null","","","","","","","","","","",""
"","null","learning_trial","html-keyboard-response","10","95836","0.0-3.0-1.3","26","4","
    <div class = 'grid-container'>
        <div class='header-text'> Friends </div>
        <div>
            Iris
            <img width='150' style='border:2px black solid;' src='stims/img/CFD-AF-226-251-N.jpg'>
        </div>
        <div> &nbsp; + &nbsp; </div>
        <div>
            Aaliyah
            <img width='150' style='border:2px black solid;' src='stims/img/CFD-BF-232-187-N.jpg'>
        </div>
        <div class='header-text'> &nbsp; </div>
    </div>
    ","null","0","true","8","stims/img/CFD-AF-226-251-N.jpg","Iris","10","stims/img/CFD-BF-232-187-N.jpg","Aaliyah","","",""
"","null","fixation","html-keyboard-response","11","96344","0.0-3.0-0.4","26","4","<div style = ""font-size:60px;""> + </div>","null","","","","","","","","","","",""
"","null","learning_trial","html-keyboard-response","12","98848","0.0-3.0-1.4","26","4","
    <div class = 'grid-container'>
        <div class='header-text'> Friends </div>
        <div>
            Jaden
            <img width='150' style='border:2px black solid;' src='stims/img/CFD-BM-203-001-N.jpg'>
        </div>
        <div> &nbsp; + &nbsp; </div>
        <div>
            Jacob
            <img width='150' style='border:2px black solid;' src='stims/img/CFD-WM-231-112-N.jpg'>
        </div>
        <div class='header-text'> &nbsp; </div>
    </div>
    ","null","0","false","1","stims/img/CFD-WM-231-112-N.jpg","Jacob","2","stims/img/CFD-BM-203-001-N.jpg","Jaden","","",""
"","null","fixation","html-keyboard-response","13","99354","0.0-3.0-0.5","26","4","<div style = ""font-size:60px;""> + </div>","null","","","","","","","","","","",""
"","null","learning_trial","html-keyboard-response","14","101862","0.0-3.0-1.5","26","4","
    <div class = 'grid-container'>
        <div class='header-text'> Friends </div>
        <div>
            Jaden
            <img width='150' style='border:2px black solid;' src='stims/img/CFD-BM-203-001-N.jpg'>
        </div>
        <div> &nbsp; + &nbsp; </div>
        <div>
            Daniel
            <img width='150' style='border:2px black solid;' src='stims/img/CFD-AM-252-114-N.jpg'>
        </div>
        <div class='header-text'> &nbsp; </div>
    </div>
    ","null","0","true","2","stims/img/CFD-BM-203-001-N.jpg","Jaden","3","stims/img/CFD-AM-252-114-N.jpg","Daniel","","",""
"","null","fixation","html-keyboard-response","15","102369","0.0-3.0-0.6","26","4","<div style = ""font-size:60px;""> + </div>","null","","","","","","","","","","",""
"","null","learning_trial","html-keyboard-response","16","104876","0.0-3.0-1.6","26","4","
    <div class = 'grid-container'>
        <div class='header-text'> Friends </div>
        <div>
            Iris
            <img width='150' style='border:2px black solid;' src='stims/img/CFD-AF-226-251-N.jpg'>
        </div>
        <div> &nbsp; + &nbsp; </div>
        <div>
            Jacob
            <img width='150' style='border:2px black solid;' src='stims/img/CFD-WM-231-112-N.jpg'>
        </div>
        <div class='header-text'> &nbsp; </div>
    </div>
    ","null","0","false","1","stims/img/CFD-WM-231-112-N.jpg","Jacob","8","stims/img/CFD-AF-226-251-N.jpg","Iris","","",""
"","null","fixation","html-keyboard-response","17","105382","0.0-3.0-0.7","26","4","<div style = ""font-size:60px;""> + </div>","null","","","","","","","","","","",""
"","null","learning_trial","html-keyboard-response","18","107890","0.0-3.0-1.7","26","4","
    <div class = 'grid-container'>
        <div class='header-text'> Friends </div>
        <div>
            Grace
            <img width='150' style='border:2px black solid;' src='stims/img/CFD-WF-232-161-N.jpg'>
        </div>
        <div> &nbsp; + &nbsp; </div>
        <div>
            Leah
            <img width='150' style='border:2px black solid;' src='stims/img/CFD-BF-242-154-N.jpg'>
        </div>
        <div class='header-text'> &nbsp; </div>
    </div>
    ","null","0","true","12","stims/img/CFD-WF-232-161-N.jpg","Grace","13","stims/img/CFD-BF-242-154-N.jpg","Leah","","",""
"","null","fixation","html-keyboard-response","19","108396","0.0-3.0-0.8","26","4","<div style = ""font-size:60px;""> + </div>","null","","","","","","","","","","",""
"","null","learning_trial","html-keyboard-response","20","110903","0.0-3.0-1.8","26","4","
    <div class = 'grid-container'>
        <div class='header-text'> Friends </div>
        <div>
            Hailey
            <img width='150' style='border:2px black solid;' src='stims/img/CFD-LF-208-127-N.jpg'>
        </div>
        <div> &nbsp; + &nbsp; </div>
        <div>
            Iris
            <img width='150' style='border:2px black solid;' src='stims/img/CFD-AF-226-251-N.jpg'>
        </div>
        <div class='header-text'> &nbsp; </div>
    </div>
    ","null","0","false","8","stims/img/CFD-AF-226-251-N.jpg","Iris","9","stims/img/CFD-LF-208-127-N.jpg","Hailey","","",""
"","null","fixation","html-keyboard-response","21","111410","0.0-3.0-0.9","26","4","<div style = ""font-size:60px;""> + </div>","null","","","","","","","","","","",""
"","null","learning_trial","html-keyboard-response","22","113917","0.0-3.0-1.9","26","4","
    <div class = 'grid-container'>
        <div class='header-text'> Friends </div>
        <div>
            Kimberly
            <img width='150' style='border:2px black solid;' src='stims/img/CFD-LF-213-079-N.jpg'>
        </div>
        <div> &nbsp; + &nbsp; </div>
        <div>
            Leah
            <img width='150' style='border:2px black solid;' src='stims/img/CFD-BF-242-154-N.jpg'>
        </div>
        <div class='header-text'> &nbsp; </div>
    </div>
    ","null","0","true","11","stims/img/CFD-LF-213-079-N.jpg","Kimberly","13","stims/img/CFD-BF-242-154-N.jpg","Leah","","",""
"","null","fixation","html-keyboard-response","23","114424","0.0-3.0-0.10","26","4","<div style = ""font-size:60px;""> + </div>","null","","","","","","","","","","",""
"","null","learning_trial","html-keyboard-response","24","116931","0.0-3.0-1.10","26","4","
    <div class = 'grid-container'>
        <div class='header-text'> Friends </div>
        <div>
            Noah
            <img width='150' style='border:2px black solid;' src='stims/img/CFD-BM-246-192-N.jpg'>
        </div>
        <div> &nbsp; + &nbsp; </div>
        <div>
            Kevin
            <img width='150' style='border:2px black solid;' src='stims/img/CFD-LM-247-095-N.jpg'>
        </div>
        <div class='header-text'> &nbsp; </div>
    </div>
    ","null","0","false","6","stims/img/CFD-LM-247-095-N.jpg","Kevin","7","stims/img/CFD-BM-246-192-N.jpg","Noah","","",""
"","null","fixation","html-keyboard-response","25","117438","0.0-3.0-0.11","26","4","<div style = ""font-size:60px;""> + </div>","null","","","","","","","","","","",""
"","null","learning_trial","html-keyboard-response","26","119942","0.0-3.0-1.11","26","4","
    <div class = 'grid-container'>
        <div class='header-text'> Friends </div>
        <div>
            James
            <img width='150' style='border:2px black solid;' src='stims/img/CFD-WM-251-002-N.jpg'>
        </div>
        <div> &nbsp; + &nbsp; </div>
        <div>
            Kevin
            <img width='150' style='border:2px black solid;' src='stims/img/CFD-LM-247-095-N.jpg'>
        </div>
        <div class='header-text'> &nbsp; </div>
    </div>
    ","null","0","true","4","stims/img/CFD-WM-251-002-N.jpg","James","6","stims/img/CFD-LM-247-095-N.jpg","Kevin","","",""
"","null","fixation","html-keyboard-response","27","120448","0.0-3.0-0.12","26","4","<div style = ""font-size:60px;""> + </div>","null","","","","","","","","","","",""
"","null","learning_trial","html-keyboard-response","28","122953","0.0-3.0-1.12","26","4","
    <div class = 'grid-container'>
        <div class='header-text'> Friends </div>
        <div>
            Jaden
            <img width='150' style='border:2px black solid;' src='stims/img/CFD-BM-203-001-N.jpg'>
        </div>
        <div> &nbsp; + &nbsp; </div>
        <div>
            James
            <img width='150' style='border:2px black solid;' src='stims/img/CFD-WM-251-002-N.jpg'>
        </div>
        <div class='header-text'> &nbsp; </div>
    </div>
    ","null","0","true","2","stims/img/CFD-BM-203-001-N.jpg","Jaden","4","stims/img/CFD-WM-251-002-N.jpg","James","","",""
"","null","fixation","html-keyboard-response","29","123459","0.0-3.0-0.13","26","4","<div style = ""font-size:60px;""> + </div>","null","","","","","","","","","","",""
"","null","learning_trial","html-keyboard-response","30","125967","0.0-3.0-1.13","26","4","
    <div class = 'grid-container'>
        <div class='header-text'> Friends </div>
        <div>
            Daniel
            <img width='150' style='border:2px black solid;' src='stims/img/CFD-AM-252-114-N.jpg'>
        </div>
        <div> &nbsp; + &nbsp; </div>
        <div>
            Ryan
            <img width='150' style='border:2px black solid;' src='stims/img/CFD-LM-244-068-N.jpg'>
        </div>
        <div class='header-text'> &nbsp; </div>
    </div>
    ","null","0","true","3","stims/img/CFD-AM-252-114-N.jpg","Daniel","5","stims/img/CFD-LM-244-068-N.jpg","Ryan","","",""
"","null","fixation","html-keyboard-response","31","126473","0.0-3.0-0.14","26","4","<div style = ""font-size:60px;""> + </div>","null","","","","","","","","","","",""
"","null","learning_trial","html-keyboard-response","32","128977","0.0-3.0-1.14","26","4","
    <div class = 'grid-container'>
        <div class='header-text'> Friends </div>
        <div>
            Aaliyah
            <img width='150' style='border:2px black solid;' src='stims/img/CFD-BF-232-187-N.jpg'>
        </div>
        <div> &nbsp; + &nbsp; </div>
        <div>
            Grace
            <img width='150' style='border:2px black solid;' src='stims/img/CFD-WF-232-161-N.jpg'>
        </div>
        <div class='header-text'> &nbsp; </div>
    </div>
    ","null","0","true","10","stims/img/CFD-BF-232-187-N.jpg","Aaliyah","12","stims/img/CFD-WF-232-161-N.jpg","Grace","","",""
"","null","fixation","html-keyboard-response","33","129483","0.0-3.0-0.15","26","4","<div style = ""font-size:60px;""> + </div>","null","","","","","","","","","","",""
"","null","learning_trial","html-keyboard-response","34","131989","0.0-3.0-1.15","26","4","
    <div class = 'grid-container'>
        <div class='header-text'> Friends </div>
        <div>
            Kimberly
            <img width='150' style='border:2px black solid;' src='stims/img/CFD-LF-213-079-N.jpg'>
        </div>
        <div> &nbsp; + &nbsp; </div>
        <div>
            Grace
            <img width='150' style='border:2px black solid;' src='stims/img/CFD-WF-232-161-N.jpg'>
        </div>
        <div class='header-text'> &nbsp; </div>
    </div>
    ","null","0","true","11","stims/img/CFD-LF-213-079-N.jpg","Kimberly","12","stims/img/CFD-WF-232-161-N.jpg","Grace","","",""
"","null","fixation","html-keyboard-response","35","132495","0.0-3.0-0.16","26","4","<div style = ""font-size:60px;""> + </div>","null","","","","","","","","","","",""
"","null","learning_trial","html-keyboard-response","36","135002","0.0-3.0-1.16","26","4","
    <div class = 'grid-container'>
        <div class='header-text'> Friends </div>
        <div>
            Noah
            <img width='150' style='border:2px black solid;' src='stims/img/CFD-BM-246-192-N.jpg'>
        </div>
        <div> &nbsp; + &nbsp; </div>
        <div>
            Ryan
            <img width='150' style='border:2px black solid;' src='stims/img/CFD-LM-244-068-N.jpg'>
        </div>
        <div class='header-text'> &nbsp; </div>
    </div>
    ","null","0","false","5","stims/img/CFD-LM-244-068-N.jpg","Ryan","7","stims/img/CFD-BM-246-192-N.jpg","Noah","","",""
"","11798","break","html-keyboard-response","37","146802","0.0-3.0-2.16-0.16","26","4","If you'd like to take a break before continuing, 
    please do so now. <p>To continue, please press the spacebar.</p>"," ","","","","","","","","","","",""
"","null","fixation","html-keyboard-response","38","147308","0.0-3.0-0.17","26","4","<div style = ""font-size:60px;""> + </div>","null","","","","","","","","","","",""
"","null","learning_trial","html-keyboard-response","39","149815","0.0-3.0-1.17","26","4","
    <div class = 'grid-container'>
        <div class='header-text'> Friends </div>
        <div>
            Leah
            <img width='150' style='border:2px black solid;' src='stims/img/CFD-BF-242-154-N.jpg'>
        </div>
        <div> &nbsp; + &nbsp; </div>
        <div>
            Kimberly
            <img width='150' style='border:2px black solid;' src='stims/img/CFD-LF-213-079-N.jpg'>
        </div>
        <div class='header-text'> &nbsp; </div>
    </div>
    ","null","1","false","11","stims/img/CFD-LF-213-079-N.jpg","Kimberly","13","stims/img/CFD-BF-242-154-N.jpg","Leah","","",""
"","null","fixation","html-keyboard-response","40","150321","0.0-3.0-0.18","26","4","<div style = ""font-size:60px;""> + </div>","null","","","","","","","","","","",""
"","null","learning_trial","html-keyboard-response","41","152829","0.0-3.0-1.18","26","4","
    <div class = 'grid-container'>
        <div class='header-text'> Friends </div>
        <div>
            Jacob
            <img width='150' style='border:2px black solid;' src='stims/img/CFD-WM-231-112-N.jpg'>
        </div>
        <div> &nbsp; + &nbsp; </div>
        <div>
            Iris
            <img width='150' style='border:2px black solid;' src='stims/img/CFD-AF-226-251-N.jpg'>
        </div>
        <div class='header-text'> &nbsp; </div>
    </div>
    ","null","1","true","1","stims/img/CFD-WM-231-112-N.jpg","Jacob","8","stims/img/CFD-AF-226-251-N.jpg","Iris","","",""
"","null","fixation","html-keyboard-response","42","153335","0.0-3.0-0.19","26","4","<div style = ""font-size:60px;""> + </div>","null","","","","","","","","","","",""
"","null","learning_trial","html-keyboard-response","43","155842","0.0-3.0-1.19","26","4","
    <div class = 'grid-container'>
        <div class='header-text'> Friends </div>
        <div>
            Noah
            <img width='150' style='border:2px black solid;' src='stims/img/CFD-BM-246-192-N.jpg'>
        </div>
        <div> &nbsp; + &nbsp; </div>
        <div>
            Kevin
            <img width='150' style='border:2px black solid;' src='stims/img/CFD-LM-247-095-N.jpg'>
        </div>
        <div class='header-text'> &nbsp; </div>
    </div>
    ","null","1","false","6","stims/img/CFD-LM-247-095-N.jpg","Kevin","7","stims/img/CFD-BM-246-192-N.jpg","Noah","","",""
"","null","fixation","html-keyboard-response","44","156349","0.0-3.0-0.20","26","4","<div style = ""font-size:60px;""> + </div>","null","","","","","","","","","","",""
"","null","learning_trial","html-keyboard-response","45","158856","0.0-3.0-1.20","26","4","
    <div class = 'grid-container'>
        <div class='header-text'> Friends </div>
        <div>
            James
            <img width='150' style='border:2px black solid;' src='stims/img/CFD-WM-251-002-N.jpg'>
        </div>
        <div> &nbsp; + &nbsp; </div>
        <div>
            Kevin
            <img width='150' style='border:2px black solid;' src='stims/img/CFD-LM-247-095-N.jpg'>
        </div>
        <div class='header-text'> &nbsp; </div>
    </div>
    ","null","1","true","4","stims/img/CFD-WM-251-002-N.jpg","James","6","stims/img/CFD-LM-247-095-N.jpg","Kevin","","",""
"","null","fixation","html-keyboard-response","46","159362","0.0-3.0-0.21","26","4","<div style = ""font-size:60px;""> + </div>","null","","","","","","","","","","",""
"","null","learning_trial","html-keyboard-response","47","161869","0.0-3.0-1.21","26","4","
    <div class = 'grid-container'>
        <div class='header-text'> Friends </div>
        <div>
            James
            <img width='150' style='border:2px black solid;' src='stims/img/CFD-WM-251-002-N.jpg'>
        </div>
        <div> &nbsp; + &nbsp; </div>
        <div>
            Daniel
            <img width='150' style='border:2px black solid;' src='stims/img/CFD-AM-252-114-N.jpg'>
        </div>
        <div class='header-text'> &nbsp; </div>
    </div>
    ","null","1","false","3","stims/img/CFD-AM-252-114-N.jpg","Daniel","4","stims/img/CFD-WM-251-002-N.jpg","James","","",""
"","null","fixation","html-keyboard-response","48","162374","0.0-3.0-0.22","26","4","<div style = ""font-size:60px;""> + </div>","null","","","","","","","","","","",""
"","null","learning_trial","html-keyboard-response","49","164881","0.0-3.0-1.22","26","4","
    <div class = 'grid-container'>
        <div class='header-text'> Friends </div>
        <div>
            James
            <img width='150' style='border:2px black solid;' src='stims/img/CFD-WM-251-002-N.jpg'>
        </div>
        <div> &nbsp; + &nbsp; </div>
        <div>
            Ryan
            <img width='150' style='border:2px black solid;' src='stims/img/CFD-LM-244-068-N.jpg'>
        </div>
        <div class='header-text'> &nbsp; </div>
    </div>
    ","null","1","true","4","stims/img/CFD-WM-251-002-N.jpg","James","5","stims/img/CFD-LM-244-068-N.jpg","Ryan","","",""
"","null","fixation","html-keyboard-response","50","165386","0.0-3.0-0.23","26","4","<div style = ""font-size:60px;""> + </div>","null","","","","","","","","","","",""
"","null","learning_trial","html-keyboard-response","51","167894","0.0-3.0-1.23","26","4","
    <div class = 'grid-container'>
        <div class='header-text'> Friends </div>
        <div>
            Jacob
            <img width='150' style='border:2px black solid;' src='stims/img/CFD-WM-231-112-N.jpg'>
        </div>
        <div> &nbsp; + &nbsp; </div>
        <div>
            Jaden
            <img width='150' style='border:2px black solid;' src='stims/img/CFD-BM-203-001-N.jpg'>
        </div>
        <div class='header-text'> &nbsp; </div>
    </div>
    ","null","1","true","1","stims/img/CFD-WM-231-112-N.jpg","Jacob","2","stims/img/CFD-BM-203-001-N.jpg","Jaden","","",""
"","null","fixation","html-keyboard-response","52","168400","0.0-3.0-0.24","26","4","<div style = ""font-size:60px;""> + </div>","null","","","","","","","","","","",""
"","null","learning_trial","html-keyboard-response","53","170907","0.0-3.0-1.24","26","4","
    <div class = 'grid-container'>
        <div class='header-text'> Friends </div>
        <div>
            Ryan
            <img width='150' style='border:2px black solid;' src='stims/img/CFD-LM-244-068-N.jpg'>
        </div>
        <div> &nbsp; + &nbsp; </div>
        <div>
            Noah
            <img width='150' style='border:2px black solid;' src='stims/img/CFD-BM-246-192-N.jpg'>
        </div>
        <div class='header-text'> &nbsp; </div>
    </div>
    ","null","1","true","5","stims/img/CFD-LM-244-068-N.jpg","Ryan","7","stims/img/CFD-BM-246-192-N.jpg","Noah","","",""
"","null","fixation","html-keyboard-response","54","171413","0.0-3.0-0.25","26","4","<div style = ""font-size:60px;""> + </div>","null","","","","","","","","","","",""
"","null","learning_trial","html-keyboard-response","55","173917","0.0-3.0-1.25","26","4","
    <div class = 'grid-container'>
        <div class='header-text'> Friends </div>
        <div>
            Jaden
            <img width='150' style='border:2px black solid;' src='stims/img/CFD-BM-203-001-N.jpg'>
        </div>
        <div> &nbsp; + &nbsp; </div>
        <div>
            James
            <img width='150' style='border:2px black solid;' src='stims/img/CFD-WM-251-002-N.jpg'>
        </div>
        <div class='header-text'> &nbsp; </div>
    </div>
    ","null","1","true","2","stims/img/CFD-BM-203-001-N.jpg","Jaden","4","stims/img/CFD-WM-251-002-N.jpg","James","","",""
"","null","fixation","html-keyboard-response","56","174424","0.0-3.0-0.26","26","4","<div style = ""font-size:60px;""> + </div>","null","","","","","","","","","","",""
"","null","learning_trial","html-keyboard-response","57","176926","0.0-3.0-1.26","26","4","
    <div class = 'grid-container'>
        <div class='header-text'> Friends </div>
        <div>
            Ryan
            <img width='150' style='border:2px black solid;' src='stims/img/CFD-LM-244-068-N.jpg'>
        </div>
        <div> &nbsp; + &nbsp; </div>
        <div>
            Daniel
            <img width='150' style='border:2px black solid;' src='stims/img/CFD-AM-252-114-N.jpg'>
        </div>
        <div class='header-text'> &nbsp; </div>
    </div>
    ","null","1","false","3","stims/img/CFD-AM-252-114-N.jpg","Daniel","5","stims/img/CFD-LM-244-068-N.jpg","Ryan","","",""
"","null","fixation","html-keyboard-response","58","177431","0.0-3.0-0.27","26","4","<div style = ""font-size:60px;""> + </div>","null","","","","","","","","","","",""
"","null","learning_trial","html-keyboard-response","59","179939","0.0-3.0-1.27","26","4","
    <div class = 'grid-container'>
        <div class='header-text'> Friends </div>
        <div>
            Grace
            <img width='150' style='border:2px black solid;' src='stims/img/CFD-WF-232-161-N.jpg'>
        </div>
        <div> &nbsp; + &nbsp; </div>
        <div>
            Leah
            <img width='150' style='border:2px black solid;' src='stims/img/CFD-BF-242-154-N.jpg'>
        </div>
        <div class='header-text'> &nbsp; </div>
    </div>
    ","null","1","true","12","stims/img/CFD-WF-232-161-N.jpg","Grace","13","stims/img/CFD-BF-242-154-N.jpg","Leah","","",""
"","null","fixation","html-keyboard-response","60","180443","0.0-3.0-0.28","26","4","<div style = ""font-size:60px;""> + </div>","null","","","","","","","","","","",""
"","null","learning_trial","html-keyboard-response","61","182950","0.0-3.0-1.28","26","4","
    <div class = 'grid-container'>
        <div class='header-text'> Friends </div>
        <div>
            Kimberly
            <img width='150' style='border:2px black solid;' src='stims/img/CFD-LF-213-079-N.jpg'>
        </div>
        <div> &nbsp; + &nbsp; </div>
        <div>
            Grace
            <img width='150' style='border:2px black solid;' src='stims/img/CFD-WF-232-161-N.jpg'>
        </div>
        <div class='header-text'> &nbsp; </div>
    </div>
    ","null","1","true","11","stims/img/CFD-LF-213-079-N.jpg","Kimberly","12","stims/img/CFD-WF-232-161-N.jpg","Grace","","",""
"","null","fixation","html-keyboard-response","62","183456","0.0-3.0-0.29","26","4","<div style = ""font-size:60px;""> + </div>","null","","","","","","","","","","",""
"","null","learning_trial","html-keyboard-response","63","185962","0.0-3.0-1.29","26","4","
    <div class = 'grid-container'>
        <div class='header-text'> Friends </div>
        <div>
            Daniel
            <img width='150' style='border:2px black solid;' src='stims/img/CFD-AM-252-114-N.jpg'>
        </div>
        <div> &nbsp; + &nbsp; </div>
        <div>
            Jaden
            <img width='150' style='border:2px black solid;' src='stims/img/CFD-BM-203-001-N.jpg'>
        </div>
        <div class='header-text'> &nbsp; </div>
    </div>
    ","null","1","false","2","stims/img/CFD-BM-203-001-N.jpg","Jaden","3","stims/img/CFD-AM-252-114-N.jpg","Daniel","","",""
"","null","fixation","html-keyboard-response","64","186469","0.0-3.0-0.30","26","4","<div style = ""font-size:60px;""> + </div>","null","","","","","","","","","","",""
"","null","learning_trial","html-keyboard-response","65","188977","0.0-3.0-1.30","26","4","
    <div class = 'grid-container'>
        <div class='header-text'> Friends </div>
        <div>
            Iris
            <img width='150' style='border:2px black solid;' src='stims/img/CFD-AF-226-251-N.jpg'>
        </div>
        <div> &nbsp; + &nbsp; </div>
        <div>
            Hailey
            <img width='150' style='border:2px black solid;' src='stims/img/CFD-LF-208-127-N.jpg'>
        </div>
        <div class='header-text'> &nbsp; </div>
    </div>
    ","null","1","true","8","stims/img/CFD-AF-226-251-N.jpg","Iris","9","stims/img/CFD-LF-208-127-N.jpg","Hailey","","",""
"","null","fixation","html-keyboard-response","66","189483","0.0-3.0-0.31","26","4","<div style = ""font-size:60px;""> + </div>","null","","","","","","","","","","",""
"","null","learning_trial","html-keyboard-response","67","191990","0.0-3.0-1.31","26","4","
    <div class = 'grid-container'>
        <div class='header-text'> Friends </div>
        <div>
            Aaliyah
            <img width='150' style='border:2px black solid;' src='stims/img/CFD-BF-232-187-N.jpg'>
        </div>
        <div> &nbsp; + &nbsp; </div>
        <div>
            Grace
            <img width='150' style='border:2px black solid;' src='stims/img/CFD-WF-232-161-N.jpg'>
        </div>
        <div class='header-text'> &nbsp; </div>
    </div>
    ","null","1","true","10","stims/img/CFD-BF-232-187-N.jpg","Aaliyah","12","stims/img/CFD-WF-232-161-N.jpg","Grace","","",""
"","null","fixation","html-keyboard-response","68","192497","0.0-3.0-0.32","26","4","<div style = ""font-size:60px;""> + </div>","null","","","","","","","","","","",""
"","null","learning_trial","html-keyboard-response","69","195000","0.0-3.0-1.32","26","4","
    <div class = 'grid-container'>
        <div class='header-text'> Friends </div>
        <div>
            Aaliyah
            <img width='150' style='border:2px black solid;' src='stims/img/CFD-BF-232-187-N.jpg'>
        </div>
        <div> &nbsp; + &nbsp; </div>
        <div>
            Iris
            <img width='150' style='border:2px black solid;' src='stims/img/CFD-AF-226-251-N.jpg'>
        </div>
        <div class='header-text'> &nbsp; </div>
    </div>
    ","null","1","false","8","stims/img/CFD-AF-226-251-N.jpg","Iris","10","stims/img/CFD-BF-232-187-N.jpg","Aaliyah","","",""
"","null","fixation","html-keyboard-response","70","195504","0.0-3.0-0.33","26","4","<div style = ""font-size:60px;""> + </div>","null","","","","","","","","","","",""
"","null","learning_trial","html-keyboard-response","71","198012","0.0-3.0-1.33","26","4","
    <div class = 'grid-container'>
        <div class='header-text'> Friends </div>
        <div>
            Kimberly
            <img width='150' style='border:2px black solid;' src='stims/img/CFD-LF-213-079-N.jpg'>
        </div>
        <div> &nbsp; + &nbsp; </div>
        <div>
            Hailey
            <img width='150' style='border:2px black solid;' src='stims/img/CFD-LF-208-127-N.jpg'>
        </div>
        <div class='header-text'> &nbsp; </div>
    </div>
    ","null","1","false","9","stims/img/CFD-LF-208-127-N.jpg","Hailey","11","stims/img/CFD-LF-213-079-N.jpg","Kimberly","","",""
"","66203","break","html-keyboard-response","72","264213","0.0-3.0-2.33-0.33","26","4","If you'd like to take a break before continuing, 
    please do so now. <p>To continue, please press the spacebar.</p>"," ","","","","","","","","","","",""
"","null","fixation","html-keyboard-response","73","264719","0.0-3.0-0.34","26","4","<div style = ""font-size:60px;""> + </div>","null","","","","","","","","","","",""
"","null","learning_trial","html-keyboard-response","74","267226","0.0-3.0-1.34","26","4","
    <div class = 'grid-container'>
        <div class='header-text'> Friends </div>
        <div>
            Jaden
            <img width='150' style='border:2px black solid;' src='stims/img/CFD-BM-203-001-N.jpg'>
        </div>
        <div> &nbsp; + &nbsp; </div>
        <div>
            James
            <img width='150' style='border:2px black solid;' src='stims/img/CFD-WM-251-002-N.jpg'>
        </div>
        <div class='header-text'> &nbsp; </div>
    </div>
    ","null","2","true","2","stims/img/CFD-BM-203-001-N.jpg","Jaden","4","stims/img/CFD-WM-251-002-N.jpg","James","","",""
"","null","fixation","html-keyboard-response","75","267733","0.0-3.0-0.35","26","4","<div style = ""font-size:60px;""> + </div>","null","","","","","","","","","","",""
"","null","learning_trial","html-keyboard-response","76","270236","0.0-3.0-1.35","26","4","
    <div class = 'grid-container'>
        <div class='header-text'> Friends </div>
        <div>
            Kevin
            <img width='150' style='border:2px black solid;' src='stims/img/CFD-LM-247-095-N.jpg'>
        </div>
        <div> &nbsp; + &nbsp; </div>
        <div>
            James
            <img width='150' style='border:2px black solid;' src='stims/img/CFD-WM-251-002-N.jpg'>
        </div>
        <div class='header-text'> &nbsp; </div>
    </div>
    ","null","2","false","4","stims/img/CFD-WM-251-002-N.jpg","James","6","stims/img/CFD-LM-247-095-N.jpg","Kevin","","",""
"","null","fixation","html-keyboard-response","77","270742","0.0-3.0-0.36","26","4","<div style = ""font-size:60px;""> + </div>","null","","","","","","","","","","",""
"","null","learning_trial","html-keyboard-response","78","273248","0.0-3.0-1.36","26","4","
    <div class = 'grid-container'>
        <div class='header-text'> Friends </div>
        <div>
            Noah
            <img width='150' style='border:2px black solid;' src='stims/img/CFD-BM-246-192-N.jpg'>
        </div>
        <div> &nbsp; + &nbsp; </div>
        <div>
            Ryan
            <img width='150' style='border:2px black solid;' src='stims/img/CFD-LM-244-068-N.jpg'>
        </div>
        <div class='header-text'> &nbsp; </div>
    </div>
    ","null","2","false","5","stims/img/CFD-LM-244-068-N.jpg","Ryan","7","stims/img/CFD-BM-246-192-N.jpg","Noah","","",""
"","null","fixation","html-keyboard-response","79","273755","0.0-3.0-0.37","26","4","<div style = ""font-size:60px;""> + </div>","null","","","","","","","","","","",""
"","null","learning_trial","html-keyboard-response","80","276262","0.0-3.0-1.37","26","4","
    <div class = 'grid-container'>
        <div class='header-text'> Friends </div>
        <div>
            Grace
            <img width='150' style='border:2px black solid;' src='stims/img/CFD-WF-232-161-N.jpg'>
        </div>
        <div> &nbsp; + &nbsp; </div>
        <div>
            Leah
            <img width='150' style='border:2px black solid;' src='stims/img/CFD-BF-242-154-N.jpg'>
        </div>
        <div class='header-text'> &nbsp; </div>
    </div>
    ","null","2","true","12","stims/img/CFD-WF-232-161-N.jpg","Grace","13","stims/img/CFD-BF-242-154-N.jpg","Leah","","",""
"","null","fixation","html-keyboard-response","81","276764","0.0-3.0-0.38","26","4","<div style = ""font-size:60px;""> + </div>","null","","","","","","","","","","",""
"","null","learning_trial","html-keyboard-response","82","279268","0.0-3.0-1.38","26","4","
    <div class = 'grid-container'>
        <div class='header-text'> Friends </div>
        <div>
            Hailey
            <img width='150' style='border:2px black solid;' src='stims/img/CFD-LF-208-127-N.jpg'>
        </div>
        <div> &nbsp; + &nbsp; </div>
        <div>
            Kimberly
            <img width='150' style='border:2px black solid;' src='stims/img/CFD-LF-213-079-N.jpg'>
        </div>
        <div class='header-text'> &nbsp; </div>
    </div>
    ","null","2","true","9","stims/img/CFD-LF-208-127-N.jpg","Hailey","11","stims/img/CFD-LF-213-079-N.jpg","Kimberly","","",""
"","null","fixation","html-keyboard-response","83","279773","0.0-3.0-0.39","26","4","<div style = ""font-size:60px;""> + </div>","null","","","","","","","","","","",""
"","null","learning_trial","html-keyboard-response","84","282279","0.0-3.0-1.39","26","4","
    <div class = 'grid-container'>
        <div class='header-text'> Friends </div>
        <div>
            Iris
            <img width='150' style='border:2px black solid;' src='stims/img/CFD-AF-226-251-N.jpg'>
        </div>
        <div> &nbsp; + &nbsp; </div>
        <div>
            Aaliyah
            <img width='150' style='border:2px black solid;' src='stims/img/CFD-BF-232-187-N.jpg'>
        </div>
        <div class='header-text'> &nbsp; </div>
    </div>
    ","null","2","true","8","stims/img/CFD-AF-226-251-N.jpg","Iris","10","stims/img/CFD-BF-232-187-N.jpg","Aaliyah","","",""
"","null","fixation","html-keyboard-response","85","282784","0.0-3.0-0.40","26","4","<div style = ""font-size:60px;""> + </div>","null","","","","","","","","","","",""
"","null","learning_trial","html-keyboard-response","86","285291","0.0-3.0-1.40","26","4","
    <div class = 'grid-container'>
        <div class='header-text'> Friends </div>
        <div>
            James
            <img width='150' style='border:2px black solid;' src='stims/img/CFD-WM-251-002-N.jpg'>
        </div>
        <div> &nbsp; + &nbsp; </div>
        <div>
            Ryan
            <img width='150' style='border:2px black solid;' src='stims/img/CFD-LM-244-068-N.jpg'>
        </div>
        <div class='header-text'> &nbsp; </div>
    </div>
    ","null","2","true","4","stims/img/CFD-WM-251-002-N.jpg","James","5","stims/img/CFD-LM-244-068-N.jpg","Ryan","","",""
"","null","fixation","html-keyboard-response","87","285797","0.0-3.0-0.41","26","4","<div style = ""font-size:60px;""> + </div>","null","","","","","","","","","","",""
"","null","learning_trial","html-keyboard-response","88","288304","0.0-3.0-1.41","26","4","
    <div class = 'grid-container'>
        <div class='header-text'> Friends </div>
        <div>
            Leah
            <img width='150' style='border:2px black solid;' src='stims/img/CFD-BF-242-154-N.jpg'>
        </div>
        <div> &nbsp; + &nbsp; </div>
        <div>
            Kimberly
            <img width='150' style='border:2px black solid;' src='stims/img/CFD-LF-213-079-N.jpg'>
        </div>
        <div class='header-text'> &nbsp; </div>
    </div>
    ","null","2","false","11","stims/img/CFD-LF-213-079-N.jpg","Kimberly","13","stims/img/CFD-BF-242-154-N.jpg","Leah","","",""
"","null","fixation","html-keyboard-response","89","288811","0.0-3.0-0.42","26","4","<div style = ""font-size:60px;""> + </div>","null","","","","","","","","","","",""
"","null","learning_trial","html-keyboard-response","90","291312","0.0-3.0-1.42","26","4","
    <div class = 'grid-container'>
        <div class='header-text'> Friends </div>
        <div>
            Kevin
            <img width='150' style='border:2px black solid;' src='stims/img/CFD-LM-247-095-N.jpg'>
        </div>
        <div> &nbsp; + &nbsp; </div>
        <div>
            Noah
            <img width='150' style='border:2px black solid;' src='stims/img/CFD-BM-246-192-N.jpg'>
        </div>
        <div class='header-text'> &nbsp; </div>
    </div>
    ","null","2","true","6","stims/img/CFD-LM-247-095-N.jpg","Kevin","7","stims/img/CFD-BM-246-192-N.jpg","Noah","","",""
"","null","fixation","html-keyboard-response","91","291814","0.0-3.0-0.43","26","4","<div style = ""font-size:60px;""> + </div>","null","","","","","","","","","","",""
"","null","learning_trial","html-keyboard-response","92","294321","0.0-3.0-1.43","26","4","
    <div class = 'grid-container'>
        <div class='header-text'> Friends </div>
        <div>
            Daniel
            <img width='150' style='border:2px black solid;' src='stims/img/CFD-AM-252-114-N.jpg'>
        </div>
        <div> &nbsp; + &nbsp; </div>
        <div>
            James
            <img width='150' style='border:2px black solid;' src='stims/img/CFD-WM-251-002-N.jpg'>
        </div>
        <div class='header-text'> &nbsp; </div>
    </div>
    ","null","2","true","3","stims/img/CFD-AM-252-114-N.jpg","Daniel","4","stims/img/CFD-WM-251-002-N.jpg","James","","",""
"","null","fixation","html-keyboard-response","93","294827","0.0-3.0-0.44","26","4","<div style = ""font-size:60px;""> + </div>","null","","","","","","","","","","",""
"","null","learning_trial","html-keyboard-response","94","297329","0.0-3.0-1.44","26","4","
    <div class = 'grid-container'>
        <div class='header-text'> Friends </div>
        <div>
            Ryan
            <img width='150' style='border:2px black solid;' src='stims/img/CFD-LM-244-068-N.jpg'>
        </div>
        <div> &nbsp; + &nbsp; </div>
        <div>
            Daniel
            <img width='150' style='border:2px black solid;' src='stims/img/CFD-AM-252-114-N.jpg'>
        </div>
        <div class='header-text'> &nbsp; </div>
    </div>
    ","null","2","false","3","stims/img/CFD-AM-252-114-N.jpg","Daniel","5","stims/img/CFD-LM-244-068-N.jpg","Ryan","","",""
"","null","fixation","html-keyboard-response","95","297830","0.0-3.0-0.45","26","4","<div style = ""font-size:60px;""> + </div>","null","","","","","","","","","","",""
"","null","learning_trial","html-keyboard-response","96","300336","0.0-3.0-1.45","26","4","
    <div class = 'grid-container'>
        <div class='header-text'> Friends </div>
        <div>
            Grace
            <img width='150' style='border:2px black solid;' src='stims/img/CFD-WF-232-161-N.jpg'>
        </div>
        <div> &nbsp; + &nbsp; </div>
        <div>
            Aaliyah
            <img width='150' style='border:2px black solid;' src='stims/img/CFD-BF-232-187-N.jpg'>
        </div>
        <div class='header-text'> &nbsp; </div>
    </div>
    ","null","2","false","10","stims/img/CFD-BF-232-187-N.jpg","Aaliyah","12","stims/img/CFD-WF-232-161-N.jpg","Grace","","",""
"","null","fixation","html-keyboard-response","97","300843","0.0-3.0-0.46","26","4","<div style = ""font-size:60px;""> + </div>","null","","","","","","","","","","",""
"","null","learning_trial","html-keyboard-response","98","303349","0.0-3.0-1.46","26","4","
    <div class = 'grid-container'>
        <div class='header-text'> Friends </div>
        <div>
            Grace
            <img width='150' style='border:2px black solid;' src='stims/img/CFD-WF-232-161-N.jpg'>
        </div>
        <div> &nbsp; + &nbsp; </div>
        <div>
            Kimberly
            <img width='150' style='border:2px black solid;' src='stims/img/CFD-LF-213-079-N.jpg'>
        </div>
        <div class='header-text'> &nbsp; </div>
    </div>
    ","null","2","false","11","stims/img/CFD-LF-213-079-N.jpg","Kimberly","12","stims/img/CFD-WF-232-161-N.jpg","Grace","","",""
"","null","fixation","html-keyboard-response","99","303857","0.0-3.0-0.47","26","4","<div style = ""font-size:60px;""> + </div>","null","","","","","","","","","","",""
"","null","learning_trial","html-keyboard-response","100","306364","0.0-3.0-1.47","26","4","
    <div class = 'grid-container'>
        <div class='header-text'> Friends </div>
        <div>
            Jacob
            <img width='150' style='border:2px black solid;' src='stims/img/CFD-WM-231-112-N.jpg'>
        </div>
        <div> &nbsp; + &nbsp; </div>
        <div>
            Jaden
            <img width='150' style='border:2px black solid;' src='stims/img/CFD-BM-203-001-N.jpg'>
        </div>
        <div class='header-text'> &nbsp; </div>
    </div>
    ","null","2","true","1","stims/img/CFD-WM-231-112-N.jpg","Jacob","2","stims/img/CFD-BM-203-001-N.jpg","Jaden","","",""
"","null","fixation","html-keyboard-response","101","306870","0.0-3.0-0.48","26","4","<div style = ""font-size:60px;""> + </div>","null","","","","","","","","","","",""
"","null","learning_trial","html-keyboard-response","102","309378","0.0-3.0-1.48","26","4","
    <div class = 'grid-container'>
        <div class='header-text'> Friends </div>
        <div>
            Iris
            <img width='150' style='border:2px black solid;' src='stims/img/CFD-AF-226-251-N.jpg'>
        </div>
        <div> &nbsp; + &nbsp; </div>
        <div>
            Jacob
            <img width='150' style='border:2px black solid;' src='stims/img/CFD-WM-231-112-N.jpg'>
        </div>
        <div class='header-text'> &nbsp; </div>
    </div>
    ","null","2","false","1","stims/img/CFD-WM-231-112-N.jpg","Jacob","8","stims/img/CFD-AF-226-251-N.jpg","Iris","","",""
"","null","fixation","html-keyboard-response","103","309884","0.0-3.0-0.49","26","4","<div style = ""font-size:60px;""> + </div>","null","","","","","","","","","","",""
"","null","learning_trial","html-keyboard-response","104","312390","0.0-3.0-1.49","26","4","
    <div class = 'grid-container'>
        <div class='header-text'> Friends </div>
        <div>
            Daniel
            <img width='150' style='border:2px black solid;' src='stims/img/CFD-AM-252-114-N.jpg'>
        </div>
        <div> &nbsp; + &nbsp; </div>
        <div>
            Jaden
            <img width='150' style='border:2px black solid;' src='stims/img/CFD-BM-203-001-N.jpg'>
        </div>
        <div class='header-text'> &nbsp; </div>
    </div>
    ","null","2","false","2","stims/img/CFD-BM-203-001-N.jpg","Jaden","3","stims/img/CFD-AM-252-114-N.jpg","Daniel","","",""
"","null","fixation","html-keyboard-response","105","312896","0.0-3.0-0.50","26","4","<div style = ""font-size:60px;""> + </div>","null","","","","","","","","","","",""
"","null","learning_trial","html-keyboard-response","106","315403","0.0-3.0-1.50","26","4","
    <div class = 'grid-container'>
        <div class='header-text'> Friends </div>
        <div>
            Hailey
            <img width='150' style='border:2px black solid;' src='stims/img/CFD-LF-208-127-N.jpg'>
        </div>
        <div> &nbsp; + &nbsp; </div>
        <div>
            Iris
            <img width='150' style='border:2px black solid;' src='stims/img/CFD-AF-226-251-N.jpg'>
        </div>
        <div class='header-text'> &nbsp; </div>
    </div>
    ","null","2","false","8","stims/img/CFD-AF-226-251-N.jpg","Iris","9","stims/img/CFD-LF-208-127-N.jpg","Hailey","","",""
"","10923","break","html-keyboard-response","107","326327","0.0-3.0-2.50-0.50","26","4","If you'd like to take a break before continuing, 
    please do so now. <p>To continue, please press the spacebar.</p>"," ","","","","","","","","","","",""
"","null","fixation","html-keyboard-response","108","326832","0.0-3.0-0.51","26","4","<div style = ""font-size:60px;""> + </div>","null","","","","","","","","","","",""
"","null","learning_trial","html-keyboard-response","109","329340","0.0-3.0-1.51","26","4","
    <div class = 'grid-container'>
        <div class='header-text'> Friends </div>
        <div>
            James
            <img width='150' style='border:2px black solid;' src='stims/img/CFD-WM-251-002-N.jpg'>
        </div>
        <div> &nbsp; + &nbsp; </div>
        <div>
            Daniel
            <img width='150' style='border:2px black solid;' src='stims/img/CFD-AM-252-114-N.jpg'>
        </div>
        <div class='header-text'> &nbsp; </div>
    </div>
    ","null","3","false","3","stims/img/CFD-AM-252-114-N.jpg","Daniel","4","stims/img/CFD-WM-251-002-N.jpg","James","","",""
"","null","fixation","html-keyboard-response","110","329846","0.0-3.0-0.52","26","4","<div style = ""font-size:60px;""> + </div>","null","","","","","","","","","","",""
"","null","learning_trial","html-keyboard-response","111","332353","0.0-3.0-1.52","26","4","
    <div class = 'grid-container'>
        <div class='header-text'> Friends </div>
        <div>
            Iris
            <img width='150' style='border:2px black solid;' src='stims/img/CFD-AF-226-251-N.jpg'>
        </div>
        <div> &nbsp; + &nbsp; </div>
        <div>
            Jacob
            <img width='150' style='border:2px black solid;' src='stims/img/CFD-WM-231-112-N.jpg'>
        </div>
        <div class='header-text'> &nbsp; </div>
    </div>
    ","null","3","false","1","stims/img/CFD-WM-231-112-N.jpg","Jacob","8","stims/img/CFD-AF-226-251-N.jpg","Iris","","",""
"","null","fixation","html-keyboard-response","112","332859","0.0-3.0-0.53","26","4","<div style = ""font-size:60px;""> + </div>","null","","","","","","","","","","",""
"","null","learning_trial","html-keyboard-response","113","335367","0.0-3.0-1.53","26","4","
    <div class = 'grid-container'>
        <div class='header-text'> Friends </div>
        <div>
            Grace
            <img width='150' style='border:2px black solid;' src='stims/img/CFD-WF-232-161-N.jpg'>
        </div>
        <div> &nbsp; + &nbsp; </div>
        <div>
            Leah
            <img width='150' style='border:2px black solid;' src='stims/img/CFD-BF-242-154-N.jpg'>
        </div>
        <div class='header-text'> &nbsp; </div>
    </div>
    ","null","3","true","12","stims/img/CFD-WF-232-161-N.jpg","Grace","13","stims/img/CFD-BF-242-154-N.jpg","Leah","","",""
"","null","fixation","html-keyboard-response","114","335873","0.0-3.0-0.54","26","4","<div style = ""font-size:60px;""> + </div>","null","","","","","","","","","","",""
"","null","learning_trial","html-keyboard-response","115","338380","0.0-3.0-1.54","26","4","
    <div class = 'grid-container'>
        <div class='header-text'> Friends </div>
        <div>
            Hailey
            <img width='150' style='border:2px black solid;' src='stims/img/CFD-LF-208-127-N.jpg'>
        </div>
        <div> &nbsp; + &nbsp; </div>
        <div>
            Kimberly
            <img width='150' style='border:2px black solid;' src='stims/img/CFD-LF-213-079-N.jpg'>
        </div>
        <div class='header-text'> &nbsp; </div>
    </div>
    ","null","3","true","9","stims/img/CFD-LF-208-127-N.jpg","Hailey","11","stims/img/CFD-LF-213-079-N.jpg","Kimberly","","",""
"","null","fixation","html-keyboard-response","116","338886","0.0-3.0-0.55","26","4","<div style = ""font-size:60px;""> + </div>","null","","","","","","","","","","",""
"","null","learning_trial","html-keyboard-response","117","341393","0.0-3.0-1.55","26","4","
    <div class = 'grid-container'>
        <div class='header-text'> Friends </div>
        <div>
            Kevin
            <img width='150' style='border:2px black solid;' src='stims/img/CFD-LM-247-095-N.jpg'>
        </div>
        <div> &nbsp; + &nbsp; </div>
        <div>
            James
            <img width='150' style='border:2px black solid;' src='stims/img/CFD-WM-251-002-N.jpg'>
        </div>
        <div class='header-text'> &nbsp; </div>
    </div>
    ","null","3","false","4","stims/img/CFD-WM-251-002-N.jpg","James","6","stims/img/CFD-LM-247-095-N.jpg","Kevin","","",""
"","null","fixation","html-keyboard-response","118","341899","0.0-3.0-0.56","26","4","<div style = ""font-size:60px;""> + </div>","null","","","","","","","","","","",""
"","null","learning_trial","html-keyboard-response","119","344407","0.0-3.0-1.56","26","4","
    <div class = 'grid-container'>
        <div class='header-text'> Friends </div>
        <div>
            Iris
            <img width='150' style='border:2px black solid;' src='stims/img/CFD-AF-226-251-N.jpg'>
        </div>
        <div> &nbsp; + &nbsp; </div>
        <div>
            Aaliyah
            <img width='150' style='border:2px black solid;' src='stims/img/CFD-BF-232-187-N.jpg'>
        </div>
        <div class='header-text'> &nbsp; </div>
    </div>
    ","null","3","true","8","stims/img/CFD-AF-226-251-N.jpg","Iris","10","stims/img/CFD-BF-232-187-N.jpg","Aaliyah","","",""
"","null","fixation","html-keyboard-response","120","344912","0.0-3.0-0.57","26","4","<div style = ""font-size:60px;""> + </div>","null","","","","","","","","","","",""
"","null","learning_trial","html-keyboard-response","121","347420","0.0-3.0-1.57","26","4","
    <div class = 'grid-container'>
        <div class='header-text'> Friends </div>
        <div>
            Jaden
            <img width='150' style='border:2px black solid;' src='stims/img/CFD-BM-203-001-N.jpg'>
        </div>
        <div> &nbsp; + &nbsp; </div>
        <div>
            Jacob
            <img width='150' style='border:2px black solid;' src='stims/img/CFD-WM-231-112-N.jpg'>
        </div>
        <div class='header-text'> &nbsp; </div>
    </div>
    ","null","3","false","1","stims/img/CFD-WM-231-112-N.jpg","Jacob","2","stims/img/CFD-BM-203-001-N.jpg","Jaden","","",""
"","null","fixation","html-keyboard-response","122","347926","0.0-3.0-0.58","26","4","<div style = ""font-size:60px;""> + </div>","null","","","","","","","","","","",""
"","null","learning_trial","html-keyboard-response","123","350433","0.0-3.0-1.58","26","4","
    <div class = 'grid-container'>
        <div class='header-text'> Friends </div>
        <div>
            Leah
            <img width='150' style='border:2px black solid;' src='stims/img/CFD-BF-242-154-N.jpg'>
        </div>
        <div> &nbsp; + &nbsp; </div>
        <div>
            Kimberly
            <img width='150' style='border:2px black solid;' src='stims/img/CFD-LF-213-079-N.jpg'>
        </div>
        <div class='header-text'> &nbsp; </div>
    </div>
    ","null","3","false","11","stims/img/CFD-LF-213-079-N.jpg","Kimberly","13","stims/img/CFD-BF-242-154-N.jpg","Leah","","",""
"","null","fixation","html-keyboard-response","124","350939","0.0-3.0-0.59","26","4","<div style = ""font-size:60px;""> + </div>","null","","","","","","","","","","",""
"","null","learning_trial","html-keyboard-response","125","353447","0.0-3.0-1.59","26","4","
    <div class = 'grid-container'>
        <div class='header-text'> Friends </div>
        <div>
            Noah
            <img width='150' style='border:2px black solid;' src='stims/img/CFD-BM-246-192-N.jpg'>
        </div>
        <div> &nbsp; + &nbsp; </div>
        <div>
            Kevin
            <img width='150' style='border:2px black solid;' src='stims/img/CFD-LM-247-095-N.jpg'>
        </div>
        <div class='header-text'> &nbsp; </div>
    </div>
    ","null","3","false","6","stims/img/CFD-LM-247-095-N.jpg","Kevin","7","stims/img/CFD-BM-246-192-N.jpg","Noah","","",""
"","null","fixation","html-keyboard-response","126","353953","0.0-3.0-0.60","26","4","<div style = ""font-size:60px;""> + </div>","null","","","","","","","","","","",""
"","null","learning_trial","html-keyboard-response","127","356460","0.0-3.0-1.60","26","4","
    <div class = 'grid-container'>
        <div class='header-text'> Friends </div>
        <div>
            Noah
            <img width='150' style='border:2px black solid;' src='stims/img/CFD-BM-246-192-N.jpg'>
        </div>
        <div> &nbsp; + &nbsp; </div>
        <div>
            Ryan
            <img width='150' style='border:2px black solid;' src='stims/img/CFD-LM-244-068-N.jpg'>
        </div>
        <div class='header-text'> &nbsp; </div>
    </div>
    ","null","3","false","5","stims/img/CFD-LM-244-068-N.jpg","Ryan","7","stims/img/CFD-BM-246-192-N.jpg","Noah","","",""
"","null","fixation","html-keyboard-response","128","356966","0.0-3.0-0.61","26","4","<div style = ""font-size:60px;""> + </div>","null","","","","","","","","","","",""
"","null","learning_trial","html-keyboard-response","129","359473","0.0-3.0-1.61","26","4","
    <div class = 'grid-container'>
        <div class='header-text'> Friends </div>
        <div>
            Grace
            <img width='150' style='border:2px black solid;' src='stims/img/CFD-WF-232-161-N.jpg'>
        </div>
        <div> &nbsp; + &nbsp; </div>
        <div>
            Aaliyah
            <img width='150' style='border:2px black solid;' src='stims/img/CFD-BF-232-187-N.jpg'>
        </div>
        <div class='header-text'> &nbsp; </div>
    </div>
    ","null","3","false","10","stims/img/CFD-BF-232-187-N.jpg","Aaliyah","12","stims/img/CFD-WF-232-161-N.jpg","Grace","","",""
"","null","fixation","html-keyboard-response","130","359979","0.0-3.0-0.62","26","4","<div style = ""font-size:60px;""> + </div>","null","","","","","","","","","","",""
"","null","learning_trial","html-keyboard-response","131","362486","0.0-3.0-1.62","26","4","
    <div class = 'grid-container'>
        <div class='header-text'> Friends </div>
        <div>
            Jaden
            <img width='150' style='border:2px black solid;' src='stims/img/CFD-BM-203-001-N.jpg'>
        </div>
        <div> &nbsp; + &nbsp; </div>
        <div>
            Daniel
            <img width='150' style='border:2px black solid;' src='stims/img/CFD-AM-252-114-N.jpg'>
        </div>
        <div class='header-text'> &nbsp; </div>
    </div>
    ","null","3","true","2","stims/img/CFD-BM-203-001-N.jpg","Jaden","3","stims/img/CFD-AM-252-114-N.jpg","Daniel","","",""
"","null","fixation","html-keyboard-response","132","362993","0.0-3.0-0.63","26","4","<div style = ""font-size:60px;""> + </div>","null","","","","","","","","","","",""
"","null","learning_trial","html-keyboard-response","133","365499","0.0-3.0-1.63","26","4","
    <div class = 'grid-container'>
        <div class='header-text'> Friends </div>
        <div>
            Ryan
            <img width='150' style='border:2px black solid;' src='stims/img/CFD-LM-244-068-N.jpg'>
        </div>
        <div> &nbsp; + &nbsp; </div>
        <div>
            James
            <img width='150' style='border:2px black solid;' src='stims/img/CFD-WM-251-002-N.jpg'>
        </div>
        <div class='header-text'> &nbsp; </div>
    </div>
    ","null","3","false","4","stims/img/CFD-WM-251-002-N.jpg","James","5","stims/img/CFD-LM-244-068-N.jpg","Ryan","","",""
"","null","fixation","html-keyboard-response","134","366006","0.0-3.0-0.64","26","4","<div style = ""font-size:60px;""> + </div>","null","","","","","","","","","","",""
"","null","learning_trial","html-keyboard-response","135","368513","0.0-3.0-1.64","26","4","
    <div class = 'grid-container'>
        <div class='header-text'> Friends </div>
        <div>
            Ryan
            <img width='150' style='border:2px black solid;' src='stims/img/CFD-LM-244-068-N.jpg'>
        </div>
        <div> &nbsp; + &nbsp; </div>
        <div>
            Daniel
            <img width='150' style='border:2px black solid;' src='stims/img/CFD-AM-252-114-N.jpg'>
        </div>
        <div class='header-text'> &nbsp; </div>
    </div>
    ","null","3","false","3","stims/img/CFD-AM-252-114-N.jpg","Daniel","5","stims/img/CFD-LM-244-068-N.jpg","Ryan","","",""
"","null","fixation","html-keyboard-response","136","369019","0.0-3.0-0.65","26","4","<div style = ""font-size:60px;""> + </div>","null","","","","","","","","","","",""
"","null","learning_trial","html-keyboard-response","137","371526","0.0-3.0-1.65","26","4","
    <div class = 'grid-container'>
        <div class='header-text'> Friends </div>
        <div>
            Kimberly
            <img width='150' style='border:2px black solid;' src='stims/img/CFD-LF-213-079-N.jpg'>
        </div>
        <div> &nbsp; + &nbsp; </div>
        <div>
            Grace
            <img width='150' style='border:2px black solid;' src='stims/img/CFD-WF-232-161-N.jpg'>
        </div>
        <div class='header-text'> &nbsp; </div>
    </div>
    ","null","3","true","11","stims/img/CFD-LF-213-079-N.jpg","Kimberly","12","stims/img/CFD-WF-232-161-N.jpg","Grace","","",""
"","null","fixation","html-keyboard-response","138","372028","0.0-3.0-0.66","26","4","<div style = ""font-size:60px;""> + </div>","null","","","","","","","","","","",""
"","null","learning_trial","html-keyboard-response","139","374535","0.0-3.0-1.66","26","4","
    <div class = 'grid-container'>
        <div class='header-text'> Friends </div>
        <div>
            James
            <img width='150' style='border:2px black solid;' src='stims/img/CFD-WM-251-002-N.jpg'>
        </div>
        <div> &nbsp; + &nbsp; </div>
        <div>
            Jaden
            <img width='150' style='border:2px black solid;' src='stims/img/CFD-BM-203-001-N.jpg'>
        </div>
        <div class='header-text'> &nbsp; </div>
    </div>
    ","null","3","false","2","stims/img/CFD-BM-203-001-N.jpg","Jaden","4","stims/img/CFD-WM-251-002-N.jpg","James","","",""
"","null","fixation","html-keyboard-response","140","375041","0.0-3.0-0.67","26","4","<div style = ""font-size:60px;""> + </div>","null","","","","","","","","","","",""
"","null","learning_trial","html-keyboard-response","141","377548","0.0-3.0-1.67","26","4","
    <div class = 'grid-container'>
        <div class='header-text'> Friends </div>
        <div>
            Iris
            <img width='150' style='border:2px black solid;' src='stims/img/CFD-AF-226-251-N.jpg'>
        </div>
        <div> &nbsp; + &nbsp; </div>
        <div>
            Hailey
            <img width='150' style='border:2px black solid;' src='stims/img/CFD-LF-208-127-N.jpg'>
        </div>
        <div class='header-text'> &nbsp; </div>
    </div>
    ","null","3","true","8","stims/img/CFD-AF-226-251-N.jpg","Iris","9","stims/img/CFD-LF-208-127-N.jpg","Hailey","","",""
"","12756","break","html-keyboard-response","142","390305","0.0-3.0-2.67-0.67","26","4","If you'd like to take a break before continuing, 
    please do so now. <p>To continue, please press the spacebar.</p>"," ","","","","","","","","","","",""
"","null","fixation","html-keyboard-response","143","390811","0.0-3.0-0.68","26","4","<div style = ""font-size:60px;""> + </div>","null","","","","","","","","","","",""
"","null","learning_trial","html-keyboard-response","144","393318","0.0-3.0-1.68","26","4","
    <div class = 'grid-container'>
        <div class='header-text'> Friends </div>
        <div>
            Kimberly
            <img width='150' style='border:2px black solid;' src='stims/img/CFD-LF-213-079-N.jpg'>
        </div>
        <div> &nbsp; + &nbsp; </div>
        <div>
            Grace
            <img width='150' style='border:2px black solid;' src='stims/img/CFD-WF-232-161-N.jpg'>
        </div>
        <div class='header-text'> &nbsp; </div>
    </div>
    ","null","4","true","11","stims/img/CFD-LF-213-079-N.jpg","Kimberly","12","stims/img/CFD-WF-232-161-N.jpg","Grace","","",""
"","null","fixation","html-keyboard-response","145","393824","0.0-3.0-0.69","26","4","<div style = ""font-size:60px;""> + </div>","null","","","","","","","","","","",""
"","null","learning_trial","html-keyboard-response","146","396331","0.0-3.0-1.69","26","4","
    <div class = 'grid-container'>
        <div class='header-text'> Friends </div>
        <div>
            Leah
            <img width='150' style='border:2px black solid;' src='stims/img/CFD-BF-242-154-N.jpg'>
        </div>
        <div> &nbsp; + &nbsp; </div>
        <div>
            Grace
            <img width='150' style='border:2px black solid;' src='stims/img/CFD-WF-232-161-N.jpg'>
        </div>
        <div class='header-text'> &nbsp; </div>
    </div>
    ","null","4","false","12","stims/img/CFD-WF-232-161-N.jpg","Grace","13","stims/img/CFD-BF-242-154-N.jpg","Leah","","",""
"","null","fixation","html-keyboard-response","147","396834","0.0-3.0-0.70","26","4","<div style = ""font-size:60px;""> + </div>","null","","","","","","","","","","",""
"","null","learning_trial","html-keyboard-response","148","399341","0.0-3.0-1.70","26","4","
    <div class = 'grid-container'>
        <div class='header-text'> Friends </div>
        <div>
            Iris
            <img width='150' style='border:2px black solid;' src='stims/img/CFD-AF-226-251-N.jpg'>
        </div>
        <div> &nbsp; + &nbsp; </div>
        <div>
            Hailey
            <img width='150' style='border:2px black solid;' src='stims/img/CFD-LF-208-127-N.jpg'>
        </div>
        <div class='header-text'> &nbsp; </div>
    </div>
    ","null","4","true","8","stims/img/CFD-AF-226-251-N.jpg","Iris","9","stims/img/CFD-LF-208-127-N.jpg","Hailey","","",""
"","null","fixation","html-keyboard-response","149","399847","0.0-3.0-0.71","26","4","<div style = ""font-size:60px;""> + </div>","null","","","","","","","","","","",""
"","null","learning_trial","html-keyboard-response","150","402353","0.0-3.0-1.71","26","4","
    <div class = 'grid-container'>
        <div class='header-text'> Friends </div>
        <div>
            Ryan
            <img width='150' style='border:2px black solid;' src='stims/img/CFD-LM-244-068-N.jpg'>
        </div>
        <div> &nbsp; + &nbsp; </div>
        <div>
            Noah
            <img width='150' style='border:2px black solid;' src='stims/img/CFD-BM-246-192-N.jpg'>
        </div>
        <div class='header-text'> &nbsp; </div>
    </div>
    ","null","4","true","5","stims/img/CFD-LM-244-068-N.jpg","Ryan","7","stims/img/CFD-BM-246-192-N.jpg","Noah","","",""
"","null","fixation","html-keyboard-response","151","402860","0.0-3.0-0.72","26","4","<div style = ""font-size:60px;""> + </div>","null","","","","","","","","","","",""
"","null","learning_trial","html-keyboard-response","152","405367","0.0-3.0-1.72","26","4","
    <div class = 'grid-container'>
        <div class='header-text'> Friends </div>
        <div>
            Daniel
            <img width='150' style='border:2px black solid;' src='stims/img/CFD-AM-252-114-N.jpg'>
        </div>
        <div> &nbsp; + &nbsp; </div>
        <div>
            James
            <img width='150' style='border:2px black solid;' src='stims/img/CFD-WM-251-002-N.jpg'>
        </div>
        <div class='header-text'> &nbsp; </div>
    </div>
    ","null","4","true","3","stims/img/CFD-AM-252-114-N.jpg","Daniel","4","stims/img/CFD-WM-251-002-N.jpg","James","","",""
"","null","fixation","html-keyboard-response","153","405874","0.0-3.0-0.73","26","4","<div style = ""font-size:60px;""> + </div>","null","","","","","","","","","","",""
"","null","learning_trial","html-keyboard-response","154","408380","0.0-3.0-1.73","26","4","
    <div class = 'grid-container'>
        <div class='header-text'> Friends </div>
        <div>
            Daniel
            <img width='150' style='border:2px black solid;' src='stims/img/CFD-AM-252-114-N.jpg'>
        </div>
        <div> &nbsp; + &nbsp; </div>
        <div>
            Ryan
            <img width='150' style='border:2px black solid;' src='stims/img/CFD-LM-244-068-N.jpg'>
        </div>
        <div class='header-text'> &nbsp; </div>
    </div>
    ","null","4","true","3","stims/img/CFD-AM-252-114-N.jpg","Daniel","5","stims/img/CFD-LM-244-068-N.jpg","Ryan","","",""
"","null","fixation","html-keyboard-response","155","408887","0.0-3.0-0.74","26","4","<div style = ""font-size:60px;""> + </div>","null","","","","","","","","","","",""
"","null","learning_trial","html-keyboard-response","156","411394","0.0-3.0-1.74","26","4","
    <div class = 'grid-container'>
        <div class='header-text'> Friends </div>
        <div>
            Kevin
            <img width='150' style='border:2px black solid;' src='stims/img/CFD-LM-247-095-N.jpg'>
        </div>
        <div> &nbsp; + &nbsp; </div>
        <div>
            James
            <img width='150' style='border:2px black solid;' src='stims/img/CFD-WM-251-002-N.jpg'>
        </div>
        <div class='header-text'> &nbsp; </div>
    </div>
    ","null","4","false","4","stims/img/CFD-WM-251-002-N.jpg","James","6","stims/img/CFD-LM-247-095-N.jpg","Kevin","","",""
"","null","fixation","html-keyboard-response","157","411900","0.0-3.0-0.75","26","4","<div style = ""font-size:60px;""> + </div>","null","","","","","","","","","","",""
"","null","learning_trial","html-keyboard-response","158","414407","0.0-3.0-1.75","26","4","
    <div class = 'grid-container'>
        <div class='header-text'> Friends </div>
        <div>
            Jaden
            <img width='150' style='border:2px black solid;' src='stims/img/CFD-BM-203-001-N.jpg'>
        </div>
        <div> &nbsp; + &nbsp; </div>
        <div>
            Jacob
            <img width='150' style='border:2px black solid;' src='stims/img/CFD-WM-231-112-N.jpg'>
        </div>
        <div class='header-text'> &nbsp; </div>
    </div>
    ","null","4","false","1","stims/img/CFD-WM-231-112-N.jpg","Jacob","2","stims/img/CFD-BM-203-001-N.jpg","Jaden","","",""
"","null","fixation","html-keyboard-response","159","414913","0.0-3.0-0.76","26","4","<div style = ""font-size:60px;""> + </div>","null","","","","","","","","","","",""
"","null","learning_trial","html-keyboard-response","160","417419","0.0-3.0-1.76","26","4","
    <div class = 'grid-container'>
        <div class='header-text'> Friends </div>
        <div>
            Kimberly
            <img width='150' style='border:2px black solid;' src='stims/img/CFD-LF-213-079-N.jpg'>
        </div>
        <div> &nbsp; + &nbsp; </div>
        <div>
            Hailey
            <img width='150' style='border:2px black solid;' src='stims/img/CFD-LF-208-127-N.jpg'>
        </div>
        <div class='header-text'> &nbsp; </div>
    </div>
    ","null","4","false","9","stims/img/CFD-LF-208-127-N.jpg","Hailey","11","stims/img/CFD-LF-213-079-N.jpg","Kimberly","","",""
"","null","fixation","html-keyboard-response","161","417926","0.0-3.0-0.77","26","4","<div style = ""font-size:60px;""> + </div>","null","","","","","","","","","","",""
"","null","learning_trial","html-keyboard-response","162","420433","0.0-3.0-1.77","26","4","
    <div class = 'grid-container'>
        <div class='header-text'> Friends </div>
        <div>
            Aaliyah
            <img width='150' style='border:2px black solid;' src='stims/img/CFD-BF-232-187-N.jpg'>
        </div>
        <div> &nbsp; + &nbsp; </div>
        <div>
            Grace
            <img width='150' style='border:2px black solid;' src='stims/img/CFD-WF-232-161-N.jpg'>
        </div>
        <div class='header-text'> &nbsp; </div>
    </div>
    ","null","4","true","10","stims/img/CFD-BF-232-187-N.jpg","Aaliyah","12","stims/img/CFD-WF-232-161-N.jpg","Grace","","",""
"","null","fixation","html-keyboard-response","163","420939","0.0-3.0-0.78","26","4","<div style = ""font-size:60px;""> + </div>","null","","","","","","","","","","",""
"","null","learning_trial","html-keyboard-response","164","423446","0.0-3.0-1.78","26","4","
    <div class = 'grid-container'>
        <div class='header-text'> Friends </div>
        <div>
            Jaden
            <img width='150' style='border:2px black solid;' src='stims/img/CFD-BM-203-001-N.jpg'>
        </div>
        <div> &nbsp; + &nbsp; </div>
        <div>
            James
            <img width='150' style='border:2px black solid;' src='stims/img/CFD-WM-251-002-N.jpg'>
        </div>
        <div class='header-text'> &nbsp; </div>
    </div>
    ","null","4","true","2","stims/img/CFD-BM-203-001-N.jpg","Jaden","4","stims/img/CFD-WM-251-002-N.jpg","James","","",""
"","null","fixation","html-keyboard-response","165","423953","0.0-3.0-0.79","26","4","<div style = ""font-size:60px;""> + </div>","null","","","","","","","","","","",""
"","null","learning_trial","html-keyboard-response","166","426460","0.0-3.0-1.79","26","4","
    <div class = 'grid-container'>
        <div class='header-text'> Friends </div>
        <div>
            Jaden
            <img width='150' style='border:2px black solid;' src='stims/img/CFD-BM-203-001-N.jpg'>
        </div>
        <div> &nbsp; + &nbsp; </div>
        <div>
            Daniel
            <img width='150' style='border:2px black solid;' src='stims/img/CFD-AM-252-114-N.jpg'>
        </div>
        <div class='header-text'> &nbsp; </div>
    </div>
    ","null","4","true","2","stims/img/CFD-BM-203-001-N.jpg","Jaden","3","stims/img/CFD-AM-252-114-N.jpg","Daniel","","",""
"","null","fixation","html-keyboard-response","167","426965","0.0-3.0-0.80","26","4","<div style = ""font-size:60px;""> + </div>","null","","","","","","","","","","",""
"","null","learning_trial","html-keyboard-response","168","429473","0.0-3.0-1.80","26","4","
    <div class = 'grid-container'>
        <div class='header-text'> Friends </div>
        <div>
            Iris
            <img width='150' style='border:2px black solid;' src='stims/img/CFD-AF-226-251-N.jpg'>
        </div>
        <div> &nbsp; + &nbsp; </div>
        <div>
            Aaliyah
            <img width='150' style='border:2px black solid;' src='stims/img/CFD-BF-232-187-N.jpg'>
        </div>
        <div class='header-text'> &nbsp; </div>
    </div>
    ","null","4","true","8","stims/img/CFD-AF-226-251-N.jpg","Iris","10","stims/img/CFD-BF-232-187-N.jpg","Aaliyah","","",""
"","null","fixation","html-keyboard-response","169","429979","0.0-3.0-0.81","26","4","<div style = ""font-size:60px;""> + </div>","null","","","","","","","","","","",""
"","null","learning_trial","html-keyboard-response","170","432486","0.0-3.0-1.81","26","4","
    <div class = 'grid-container'>
        <div class='header-text'> Friends </div>
        <div>
            Ryan
            <img width='150' style='border:2px black solid;' src='stims/img/CFD-LM-244-068-N.jpg'>
        </div>
        <div> &nbsp; + &nbsp; </div>
        <div>
            James
            <img width='150' style='border:2px black solid;' src='stims/img/CFD-WM-251-002-N.jpg'>
        </div>
        <div class='header-text'> &nbsp; </div>
    </div>
    ","null","4","false","4","stims/img/CFD-WM-251-002-N.jpg","James","5","stims/img/CFD-LM-244-068-N.jpg","Ryan","","",""
"","null","fixation","html-keyboard-response","171","432992","0.0-3.0-0.82","26","4","<div style = ""font-size:60px;""> + </div>","null","","","","","","","","","","",""
"","null","learning_trial","html-keyboard-response","172","435500","0.0-3.0-1.82","26","4","
    <div class = 'grid-container'>
        <div class='header-text'> Friends </div>
        <div>
            Noah
            <img width='150' style='border:2px black solid;' src='stims/img/CFD-BM-246-192-N.jpg'>
        </div>
        <div> &nbsp; + &nbsp; </div>
        <div>
            Kevin
            <img width='150' style='border:2px black solid;' src='stims/img/CFD-LM-247-095-N.jpg'>
        </div>
        <div class='header-text'> &nbsp; </div>
    </div>
    ","null","4","false","6","stims/img/CFD-LM-247-095-N.jpg","Kevin","7","stims/img/CFD-BM-246-192-N.jpg","Noah","","",""
"","null","fixation","html-keyboard-response","173","436001","0.0-3.0-0.83","26","4","<div style = ""font-size:60px;""> + </div>","null","","","","","","","","","","",""
"","null","learning_trial","html-keyboard-response","174","438505","0.0-3.0-1.83","26","4","
    <div class = 'grid-container'>
        <div class='header-text'> Friends </div>
        <div>
            Leah
            <img width='150' style='border:2px black solid;' src='stims/img/CFD-BF-242-154-N.jpg'>
        </div>
        <div> &nbsp; + &nbsp; </div>
        <div>
            Kimberly
            <img width='150' style='border:2px black solid;' src='stims/img/CFD-LF-213-079-N.jpg'>
        </div>
        <div class='header-text'> &nbsp; </div>
    </div>
    ","null","4","false","11","stims/img/CFD-LF-213-079-N.jpg","Kimberly","13","stims/img/CFD-BF-242-154-N.jpg","Leah","","",""
"","null","fixation","html-keyboard-response","175","439011","0.0-3.0-0.84","26","4","<div style = ""font-size:60px;""> + </div>","null","","","","","","","","","","",""
"","null","learning_trial","html-keyboard-response","176","441518","0.0-3.0-1.84","26","4","
    <div class = 'grid-container'>
        <div class='header-text'> Friends </div>
        <div>
            Jacob
            <img width='150' style='border:2px black solid;' src='stims/img/CFD-WM-231-112-N.jpg'>
        </div>
        <div> &nbsp; + &nbsp; </div>
        <div>
            Iris
            <img width='150' style='border:2px black solid;' src='stims/img/CFD-AF-226-251-N.jpg'>
        </div>
        <div class='header-text'> &nbsp; </div>
    </div>
    ","null","4","true","1","stims/img/CFD-WM-231-112-N.jpg","Jacob","8","stims/img/CFD-AF-226-251-N.jpg","Iris","","",""
"","9907","break","html-keyboard-response","177","451427","0.0-3.0-2.84-0.84","26","4","If you'd like to take a break before continuing, 
    please do so now. <p>To continue, please press the spacebar.</p>"," ","","","","","","","","","","",""
"","null","fixation","html-keyboard-response","178","451932","0.0-3.0-0.85","26","4","<div style = ""font-size:60px;""> + </div>","null","","","","","","","","","","",""
"","null","learning_trial","html-keyboard-response","179","454439","0.0-3.0-1.85","26","4","
    <div class = 'grid-container'>
        <div class='header-text'> Friends </div>
        <div>
            Hailey
            <img width='150' style='border:2px black solid;' src='stims/img/CFD-LF-208-127-N.jpg'>
        </div>
        <div> &nbsp; + &nbsp; </div>
        <div>
            Kimberly
            <img width='150' style='border:2px black solid;' src='stims/img/CFD-LF-213-079-N.jpg'>
        </div>
        <div class='header-text'> &nbsp; </div>
    </div>
    ","null","5","true","9","stims/img/CFD-LF-208-127-N.jpg","Hailey","11","stims/img/CFD-LF-213-079-N.jpg","Kimberly","","",""
"","null","fixation","html-keyboard-response","180","454945","0.0-3.0-0.86","26","4","<div style = ""font-size:60px;""> + </div>","null","","","","","","","","","","",""
"","null","learning_trial","html-keyboard-response","181","457452","0.0-3.0-1.86","26","4","
    <div class = 'grid-container'>
        <div class='header-text'> Friends </div>
        <div>
            Grace
            <img width='150' style='border:2px black solid;' src='stims/img/CFD-WF-232-161-N.jpg'>
        </div>
        <div> &nbsp; + &nbsp; </div>
        <div>
            Leah
            <img width='150' style='border:2px black solid;' src='stims/img/CFD-BF-242-154-N.jpg'>
        </div>
        <div class='header-text'> &nbsp; </div>
    </div>
    ","null","5","true","12","stims/img/CFD-WF-232-161-N.jpg","Grace","13","stims/img/CFD-BF-242-154-N.jpg","Leah","","",""
"","null","fixation","html-keyboard-response","182","457958","0.0-3.0-0.87","26","4","<div style = ""font-size:60px;""> + </div>","null","","","","","","","","","","",""
"","null","learning_trial","html-keyboard-response","183","460465","0.0-3.0-1.87","26","4","
    <div class = 'grid-container'>
        <div class='header-text'> Friends </div>
        <div>
            James
            <img width='150' style='border:2px black solid;' src='stims/img/CFD-WM-251-002-N.jpg'>
        </div>
        <div> &nbsp; + &nbsp; </div>
        <div>
            Kevin
            <img width='150' style='border:2px black solid;' src='stims/img/CFD-LM-247-095-N.jpg'>
        </div>
        <div class='header-text'> &nbsp; </div>
    </div>
    ","null","5","true","4","stims/img/CFD-WM-251-002-N.jpg","James","6","stims/img/CFD-LM-247-095-N.jpg","Kevin","","",""
"","null","fixation","html-keyboard-response","184","460971","0.0-3.0-0.88","26","4","<div style = ""font-size:60px;""> + </div>","null","","","","","","","","","","",""
"","null","learning_trial","html-keyboard-response","185","463478","0.0-3.0-1.88","26","4","
    <div class = 'grid-container'>
        <div class='header-text'> Friends </div>
        <div>
            Noah
            <img width='150' style='border:2px black solid;' src='stims/img/CFD-BM-246-192-N.jpg'>
        </div>
        <div> &nbsp; + &nbsp; </div>
        <div>
            Ryan
            <img width='150' style='border:2px black solid;' src='stims/img/CFD-LM-244-068-N.jpg'>
        </div>
        <div class='header-text'> &nbsp; </div>
    </div>
    ","null","5","false","5","stims/img/CFD-LM-244-068-N.jpg","Ryan","7","stims/img/CFD-BM-246-192-N.jpg","Noah","","",""
"","null","fixation","html-keyboard-response","186","463985","0.0-3.0-0.89","26","4","<div style = ""font-size:60px;""> + </div>","null","","","","","","","","","","",""
"","null","learning_trial","html-keyboard-response","187","466492","0.0-3.0-1.89","26","4","
    <div class = 'grid-container'>
        <div class='header-text'> Friends </div>
        <div>
            Jacob
            <img width='150' style='border:2px black solid;' src='stims/img/CFD-WM-231-112-N.jpg'>
        </div>
        <div> &nbsp; + &nbsp; </div>
        <div>
            Iris
            <img width='150' style='border:2px black solid;' src='stims/img/CFD-AF-226-251-N.jpg'>
        </div>
        <div class='header-text'> &nbsp; </div>
    </div>
    ","null","5","true","1","stims/img/CFD-WM-231-112-N.jpg","Jacob","8","stims/img/CFD-AF-226-251-N.jpg","Iris","","",""
"","null","fixation","html-keyboard-response","188","466998","0.0-3.0-0.90","26","4","<div style = ""font-size:60px;""> + </div>","null","","","","","","","","","","",""
"","null","learning_trial","html-keyboard-response","189","469506","0.0-3.0-1.90","26","4","
    <div class = 'grid-container'>
        <div class='header-text'> Friends </div>
        <div>
            Grace
            <img width='150' style='border:2px black solid;' src='stims/img/CFD-WF-232-161-N.jpg'>
        </div>
        <div> &nbsp; + &nbsp; </div>
        <div>
            Aaliyah
            <img width='150' style='border:2px black solid;' src='stims/img/CFD-BF-232-187-N.jpg'>
        </div>
        <div class='header-text'> &nbsp; </div>
    </div>
    ","null","5","false","10","stims/img/CFD-BF-232-187-N.jpg","Aaliyah","12","stims/img/CFD-WF-232-161-N.jpg","Grace","","",""
"","null","fixation","html-keyboard-response","190","470011","0.0-3.0-0.91","26","4","<div style = ""font-size:60px;""> + </div>","null","","","","","","","","","","",""
"","null","learning_trial","html-keyboard-response","191","472518","0.0-3.0-1.91","26","4","
    <div class = 'grid-container'>
        <div class='header-text'> Friends </div>
        <div>
            Kevin
            <img width='150' style='border:2px black solid;' src='stims/img/CFD-LM-247-095-N.jpg'>
        </div>
        <div> &nbsp; + &nbsp; </div>
        <div>
            Noah
            <img width='150' style='border:2px black solid;' src='stims/img/CFD-BM-246-192-N.jpg'>
        </div>
        <div class='header-text'> &nbsp; </div>
    </div>
    ","null","5","true","6","stims/img/CFD-LM-247-095-N.jpg","Kevin","7","stims/img/CFD-BM-246-192-N.jpg","Noah","","",""
"","null","fixation","html-keyboard-response","192","473024","0.0-3.0-0.92","26","4","<div style = ""font-size:60px;""> + </div>","null","","","","","","","","","","",""
"","null","learning_trial","html-keyboard-response","193","475532","0.0-3.0-1.92","26","4","
    <div class = 'grid-container'>
        <div class='header-text'> Friends </div>
        <div>
            Kimberly
            <img width='150' style='border:2px black solid;' src='stims/img/CFD-LF-213-079-N.jpg'>
        </div>
        <div> &nbsp; + &nbsp; </div>
        <div>
            Leah
            <img width='150' style='border:2px black solid;' src='stims/img/CFD-BF-242-154-N.jpg'>
        </div>
        <div class='header-text'> &nbsp; </div>
    </div>
    ","null","5","true","11","stims/img/CFD-LF-213-079-N.jpg","Kimberly","13","stims/img/CFD-BF-242-154-N.jpg","Leah","","",""
"","null","fixation","html-keyboard-response","194","476037","0.0-3.0-0.93","26","4","<div style = ""font-size:60px;""> + </div>","null","","","","","","","","","","",""
"","null","learning_trial","html-keyboard-response","195","478545","0.0-3.0-1.93","26","4","
    <div class = 'grid-container'>
        <div class='header-text'> Friends </div>
        <div>
            Iris
            <img width='150' style='border:2px black solid;' src='stims/img/CFD-AF-226-251-N.jpg'>
        </div>
        <div> &nbsp; + &nbsp; </div>
        <div>
            Hailey
            <img width='150' style='border:2px black solid;' src='stims/img/CFD-LF-208-127-N.jpg'>
        </div>
        <div class='header-text'> &nbsp; </div>
    </div>
    ","null","5","true","8","stims/img/CFD-AF-226-251-N.jpg","Iris","9","stims/img/CFD-LF-208-127-N.jpg","Hailey","","",""
"","null","fixation","html-keyboard-response","196","479051","0.0-3.0-0.94","26","4","<div style = ""font-size:60px;""> + </div>","null","","","","","","","","","","",""
"","null","learning_trial","html-keyboard-response","197","481554","0.0-3.0-1.94","26","4","
    <div class = 'grid-container'>
        <div class='header-text'> Friends </div>
        <div>
            Aaliyah
            <img width='150' style='border:2px black solid;' src='stims/img/CFD-BF-232-187-N.jpg'>
        </div>
        <div> &nbsp; + &nbsp; </div>
        <div>
            Iris
            <img width='150' style='border:2px black solid;' src='stims/img/CFD-AF-226-251-N.jpg'>
        </div>
        <div class='header-text'> &nbsp; </div>
    </div>
    ","null","5","false","8","stims/img/CFD-AF-226-251-N.jpg","Iris","10","stims/img/CFD-BF-232-187-N.jpg","Aaliyah","","",""
"","null","fixation","html-keyboard-response","198","482062","0.0-3.0-0.95","26","4","<div style = ""font-size:60px;""> + </div>","null","","","","","","","","","","",""
"","null","learning_trial","html-keyboard-response","199","484569","0.0-3.0-1.95","26","4","
    <div class = 'grid-container'>
        <div class='header-text'> Friends </div>
        <div>
            Grace
            <img width='150' style='border:2px black solid;' src='stims/img/CFD-WF-232-161-N.jpg'>
        </div>
        <div> &nbsp; + &nbsp; </div>
        <div>
            Kimberly
            <img width='150' style='border:2px black solid;' src='stims/img/CFD-LF-213-079-N.jpg'>
        </div>
        <div class='header-text'> &nbsp; </div>
    </div>
    ","null","5","false","11","stims/img/CFD-LF-213-079-N.jpg","Kimberly","12","stims/img/CFD-WF-232-161-N.jpg","Grace","","",""
"","null","fixation","html-keyboard-response","200","485074","0.0-3.0-0.96","26","4","<div style = ""font-size:60px;""> + </div>","null","","","","","","","","","","",""
"","null","learning_trial","html-keyboard-response","201","487582","0.0-3.0-1.96","26","4","
    <div class = 'grid-container'>
        <div class='header-text'> Friends </div>
        <div>
            Daniel
            <img width='150' style='border:2px black solid;' src='stims/img/CFD-AM-252-114-N.jpg'>
        </div>
        <div> &nbsp; + &nbsp; </div>
        <div>
            James
            <img width='150' style='border:2px black solid;' src='stims/img/CFD-WM-251-002-N.jpg'>
        </div>
        <div class='header-text'> &nbsp; </div>
    </div>
    ","null","5","true","3","stims/img/CFD-AM-252-114-N.jpg","Daniel","4","stims/img/CFD-WM-251-002-N.jpg","James","","",""
"","null","fixation","html-keyboard-response","202","488084","0.0-3.0-0.97","26","4","<div style = ""font-size:60px;""> + </div>","null","","","","","","","","","","",""
"","null","learning_trial","html-keyboard-response","203","490588","0.0-3.0-1.97","26","4","
    <div class = 'grid-container'>
        <div class='header-text'> Friends </div>
        <div>
            Jaden
            <img width='150' style='border:2px black solid;' src='stims/img/CFD-BM-203-001-N.jpg'>
        </div>
        <div> &nbsp; + &nbsp; </div>
        <div>
            James
            <img width='150' style='border:2px black solid;' src='stims/img/CFD-WM-251-002-N.jpg'>
        </div>
        <div class='header-text'> &nbsp; </div>
    </div>
    ","null","5","true","2","stims/img/CFD-BM-203-001-N.jpg","Jaden","4","stims/img/CFD-WM-251-002-N.jpg","James","","",""
"","null","fixation","html-keyboard-response","204","491094","0.0-3.0-0.98","26","4","<div style = ""font-size:60px;""> + </div>","null","","","","","","","","","","",""
"","null","learning_trial","html-keyboard-response","205","493601","0.0-3.0-1.98","26","4","
    <div class = 'grid-container'>
        <div class='header-text'> Friends </div>
        <div>
            Jaden
            <img width='150' style='border:2px black solid;' src='stims/img/CFD-BM-203-001-N.jpg'>
        </div>
        <div> &nbsp; + &nbsp; </div>
        <div>
            Jacob
            <img width='150' style='border:2px black solid;' src='stims/img/CFD-WM-231-112-N.jpg'>
        </div>
        <div class='header-text'> &nbsp; </div>
    </div>
    ","null","5","false","1","stims/img/CFD-WM-231-112-N.jpg","Jacob","2","stims/img/CFD-BM-203-001-N.jpg","Jaden","","",""
"","null","fixation","html-keyboard-response","206","494108","0.0-3.0-0.99","26","4","<div style = ""font-size:60px;""> + </div>","null","","","","","","","","","","",""
"","null","learning_trial","html-keyboard-response","207","496614","0.0-3.0-1.99","26","4","
    <div class = 'grid-container'>
        <div class='header-text'> Friends </div>
        <div>
            James
            <img width='150' style='border:2px black solid;' src='stims/img/CFD-WM-251-002-N.jpg'>
        </div>
        <div> &nbsp; + &nbsp; </div>
        <div>
            Ryan
            <img width='150' style='border:2px black solid;' src='stims/img/CFD-LM-244-068-N.jpg'>
        </div>
        <div class='header-text'> &nbsp; </div>
    </div>
    ","null","5","true","4","stims/img/CFD-WM-251-002-N.jpg","James","5","stims/img/CFD-LM-244-068-N.jpg","Ryan","","",""
"","null","fixation","html-keyboard-response","208","497121","0.0-3.0-0.100","26","4","<div style = ""font-size:60px;""> + </div>","null","","","","","","","","","","",""
"","null","learning_trial","html-keyboard-response","209","499628","0.0-3.0-1.100","26","4","
    <div class = 'grid-container'>
        <div class='header-text'> Friends </div>
        <div>
            Jaden
            <img width='150' style='border:2px black solid;' src='stims/img/CFD-BM-203-001-N.jpg'>
        </div>
        <div> &nbsp; + &nbsp; </div>
        <div>
            Daniel
            <img width='150' style='border:2px black solid;' src='stims/img/CFD-AM-252-114-N.jpg'>
        </div>
        <div class='header-text'> &nbsp; </div>
    </div>
    ","null","5","true","2","stims/img/CFD-BM-203-001-N.jpg","Jaden","3","stims/img/CFD-AM-252-114-N.jpg","Daniel","","",""
"","null","fixation","html-keyboard-response","210","500134","0.0-3.0-0.101","26","4","<div style = ""font-size:60px;""> + </div>","null","","","","","","","","","","",""
"","null","learning_trial","html-keyboard-response","211","502641","0.0-3.0-1.101","26","4","
    <div class = 'grid-container'>
        <div class='header-text'> Friends </div>
        <div>
            Ryan
            <img width='150' style='border:2px black solid;' src='stims/img/CFD-LM-244-068-N.jpg'>
        </div>
        <div> &nbsp; + &nbsp; </div>
        <div>
            Daniel
            <img width='150' style='border:2px black solid;' src='stims/img/CFD-AM-252-114-N.jpg'>
        </div>
        <div class='header-text'> &nbsp; </div>
    </div>
    ","null","5","false","3","stims/img/CFD-AM-252-114-N.jpg","Daniel","5","stims/img/CFD-LM-244-068-N.jpg","Ryan","","",""
"","6930","break","html-keyboard-response","212","509573","0.0-3.0-2.101-0.101","26","4","If you'd like to take a break before continuing, 
    please do so now. <p>To continue, please press the spacebar.</p>"," ","","","","","","","","","","",""
"","null","fixation","html-keyboard-response","213","510079","0.0-3.0-0.102","26","4","<div style = ""font-size:60px;""> + </div>","null","","","","","","","","","","",""
"","null","learning_trial","html-keyboard-response","214","512582","0.0-3.0-1.102","26","4","
    <div class = 'grid-container'>
        <div class='header-text'> Friends </div>
        <div>
            Ryan
            <img width='150' style='border:2px black solid;' src='stims/img/CFD-LM-244-068-N.jpg'>
        </div>
        <div> &nbsp; + &nbsp; </div>
        <div>
            James
            <img width='150' style='border:2px black solid;' src='stims/img/CFD-WM-251-002-N.jpg'>
        </div>
        <div class='header-text'> &nbsp; </div>
    </div>
    ","null","6","false","4","stims/img/CFD-WM-251-002-N.jpg","James","5","stims/img/CFD-LM-244-068-N.jpg","Ryan","","",""
"","null","fixation","html-keyboard-response","215","513089","0.0-3.0-0.103","26","4","<div style = ""font-size:60px;""> + </div>","null","","","","","","","","","","",""
"","null","learning_trial","html-keyboard-response","216","515596","0.0-3.0-1.103","26","4","
    <div class = 'grid-container'>
        <div class='header-text'> Friends </div>
        <div>
            Aaliyah
            <img width='150' style='border:2px black solid;' src='stims/img/CFD-BF-232-187-N.jpg'>
        </div>
        <div> &nbsp; + &nbsp; </div>
        <div>
            Grace
            <img width='150' style='border:2px black solid;' src='stims/img/CFD-WF-232-161-N.jpg'>
        </div>
        <div class='header-text'> &nbsp; </div>
    </div>
    ","null","6","true","10","stims/img/CFD-BF-232-187-N.jpg","Aaliyah","12","stims/img/CFD-WF-232-161-N.jpg","Grace","","",""
"","null","fixation","html-keyboard-response","217","516102","0.0-3.0-0.104","26","4","<div style = ""font-size:60px;""> + </div>","null","","","","","","","","","","",""
"","null","learning_trial","html-keyboard-response","218","518610","0.0-3.0-1.104","26","4","
    <div class = 'grid-container'>
        <div class='header-text'> Friends </div>
        <div>
            Kevin
            <img width='150' style='border:2px black solid;' src='stims/img/CFD-LM-247-095-N.jpg'>
        </div>
        <div> &nbsp; + &nbsp; </div>
        <div>
            James
            <img width='150' style='border:2px black solid;' src='stims/img/CFD-WM-251-002-N.jpg'>
        </div>
        <div class='header-text'> &nbsp; </div>
    </div>
    ","null","6","false","4","stims/img/CFD-WM-251-002-N.jpg","James","6","stims/img/CFD-LM-247-095-N.jpg","Kevin","","",""
"","null","fixation","html-keyboard-response","219","519115","0.0-3.0-0.105","26","4","<div style = ""font-size:60px;""> + </div>","null","","","","","","","","","","",""
"","null","learning_trial","html-keyboard-response","220","521623","0.0-3.0-1.105","26","4","
    <div class = 'grid-container'>
        <div class='header-text'> Friends </div>
        <div>
            Kevin
            <img width='150' style='border:2px black solid;' src='stims/img/CFD-LM-247-095-N.jpg'>
        </div>
        <div> &nbsp; + &nbsp; </div>
        <div>
            Noah
            <img width='150' style='border:2px black solid;' src='stims/img/CFD-BM-246-192-N.jpg'>
        </div>
        <div class='header-text'> &nbsp; </div>
    </div>
    ","null","6","true","6","stims/img/CFD-LM-247-095-N.jpg","Kevin","7","stims/img/CFD-BM-246-192-N.jpg","Noah","","",""
"","null","fixation","html-keyboard-response","221","522130","0.0-3.0-0.106","26","4","<div style = ""font-size:60px;""> + </div>","null","","","","","","","","","","",""
"","null","learning_trial","html-keyboard-response","222","524636","0.0-3.0-1.106","26","4","
    <div class = 'grid-container'>
        <div class='header-text'> Friends </div>
        <div>
            James
            <img width='150' style='border:2px black solid;' src='stims/img/CFD-WM-251-002-N.jpg'>
        </div>
        <div> &nbsp; + &nbsp; </div>
        <div>
            Jaden
            <img width='150' style='border:2px black solid;' src='stims/img/CFD-BM-203-001-N.jpg'>
        </div>
        <div class='header-text'> &nbsp; </div>
    </div>
    ","null","6","false","2","stims/img/CFD-BM-203-001-N.jpg","Jaden","4","stims/img/CFD-WM-251-002-N.jpg","James","","",""
"","null","fixation","html-keyboard-response","223","525143","0.0-3.0-0.107","26","4","<div style = ""font-size:60px;""> + </div>","null","","","","","","","","","","",""
"","null","learning_trial","html-keyboard-response","224","527650","0.0-3.0-1.107","26","4","
    <div class = 'grid-container'>
        <div class='header-text'> Friends </div>
        <div>
            Leah
            <img width='150' style='border:2px black solid;' src='stims/img/CFD-BF-242-154-N.jpg'>
        </div>
        <div> &nbsp; + &nbsp; </div>
        <div>
            Kimberly
            <img width='150' style='border:2px black solid;' src='stims/img/CFD-LF-213-079-N.jpg'>
        </div>
        <div class='header-text'> &nbsp; </div>
    </div>
    ","null","6","false","11","stims/img/CFD-LF-213-079-N.jpg","Kimberly","13","stims/img/CFD-BF-242-154-N.jpg","Leah","","",""
"","null","fixation","html-keyboard-response","225","528156","0.0-3.0-0.108","26","4","<div style = ""font-size:60px;""> + </div>","null","","","","","","","","","","",""
"","null","learning_trial","html-keyboard-response","226","530663","0.0-3.0-1.108","26","4","
    <div class = 'grid-container'>
        <div class='header-text'> Friends </div>
        <div>
            Aaliyah
            <img width='150' style='border:2px black solid;' src='stims/img/CFD-BF-232-187-N.jpg'>
        </div>
        <div> &nbsp; + &nbsp; </div>
        <div>
            Iris
            <img width='150' style='border:2px black solid;' src='stims/img/CFD-AF-226-251-N.jpg'>
        </div>
        <div class='header-text'> &nbsp; </div>
    </div>
    ","null","6","false","8","stims/img/CFD-AF-226-251-N.jpg","Iris","10","stims/img/CFD-BF-232-187-N.jpg","Aaliyah","","",""
"","null","fixation","html-keyboard-response","227","531170","0.0-3.0-0.109","26","4","<div style = ""font-size:60px;""> + </div>","null","","","","","","","","","","",""
"","null","learning_trial","html-keyboard-response","228","533676","0.0-3.0-1.109","26","4","
    <div class = 'grid-container'>
        <div class='header-text'> Friends </div>
        <div>
            James
            <img width='150' style='border:2px black solid;' src='stims/img/CFD-WM-251-002-N.jpg'>
        </div>
        <div> &nbsp; + &nbsp; </div>
        <div>
            Daniel
            <img width='150' style='border:2px black solid;' src='stims/img/CFD-AM-252-114-N.jpg'>
        </div>
        <div class='header-text'> &nbsp; </div>
    </div>
    ","null","6","false","3","stims/img/CFD-AM-252-114-N.jpg","Daniel","4","stims/img/CFD-WM-251-002-N.jpg","James","","",""
"","null","fixation","html-keyboard-response","229","534182","0.0-3.0-0.110","26","4","<div style = ""font-size:60px;""> + </div>","null","","","","","","","","","","",""
"","null","learning_trial","html-keyboard-response","230","536690","0.0-3.0-1.110","26","4","
    <div class = 'grid-container'>
        <div class='header-text'> Friends </div>
        <div>
            Jacob
            <img width='150' style='border:2px black solid;' src='stims/img/CFD-WM-231-112-N.jpg'>
        </div>
        <div> &nbsp; + &nbsp; </div>
        <div>
            Jaden
            <img width='150' style='border:2px black solid;' src='stims/img/CFD-BM-203-001-N.jpg'>
        </div>
        <div class='header-text'> &nbsp; </div>
    </div>
    ","null","6","true","1","stims/img/CFD-WM-231-112-N.jpg","Jacob","2","stims/img/CFD-BM-203-001-N.jpg","Jaden","","",""
"","null","fixation","html-keyboard-response","231","537194","0.0-3.0-0.111","26","4","<div style = ""font-size:60px;""> + </div>","null","","","","","","","","","","",""
"","null","learning_trial","html-keyboard-response","232","539700","0.0-3.0-1.111","26","4","
    <div class = 'grid-container'>
        <div class='header-text'> Friends </div>
        <div>
            Jaden
            <img width='150' style='border:2px black solid;' src='stims/img/CFD-BM-203-001-N.jpg'>
        </div>
        <div> &nbsp; + &nbsp; </div>
        <div>
            Daniel
            <img width='150' style='border:2px black solid;' src='stims/img/CFD-AM-252-114-N.jpg'>
        </div>
        <div class='header-text'> &nbsp; </div>
    </div>
    ","null","6","true","2","stims/img/CFD-BM-203-001-N.jpg","Jaden","3","stims/img/CFD-AM-252-114-N.jpg","Daniel","","",""
"","null","fixation","html-keyboard-response","233","540207","0.0-3.0-0.112","26","4","<div style = ""font-size:60px;""> + </div>","null","","","","","","","","","","",""
"","null","learning_trial","html-keyboard-response","234","542713","0.0-3.0-1.112","26","4","
    <div class = 'grid-container'>
        <div class='header-text'> Friends </div>
        <div>
            Ryan
            <img width='150' style='border:2px black solid;' src='stims/img/CFD-LM-244-068-N.jpg'>
        </div>
        <div> &nbsp; + &nbsp; </div>
        <div>
            Daniel
            <img width='150' style='border:2px black solid;' src='stims/img/CFD-AM-252-114-N.jpg'>
        </div>
        <div class='header-text'> &nbsp; </div>
    </div>
    ","null","6","false","3","stims/img/CFD-AM-252-114-N.jpg","Daniel","5","stims/img/CFD-LM-244-068-N.jpg","Ryan","","",""
"","null","fixation","html-keyboard-response","235","543220","0.0-3.0-0.113","26","4","<div style = ""font-size:60px;""> + </div>","null","","","","","","","","","","",""
"","null","learning_trial","html-keyboard-response","236","545725","0.0-3.0-1.113","26","4","
