"view_history","rt","trial_purpose","trial_type","trial_index","time_elapsed","internal_node_id","sub_id","bonus","stimulus","response","rep","display_left","from_id","from_face","from_name","to_id","to_face","to_name","friendship","correct","slider_start"
"[{""page_index"":0,""viewing_time"":635202}]","635202","confirm_correct","instructions","0","635176","0.0-0.0","29","4","","","","","","","","","","","","",""
"[{""page_index"":0,""viewing_time"":18478},{""page_index"":1,""viewing_time"":12366},{""page_index"":2,""viewing_time"":6550}]","37394","instructions","instructions","1","672573","0.0-1.0","29","4","","","","","","","","","","","","",""
"[{""page_index"":0,""viewing_time"":11264},{""page_index"":1,""viewing_time"":5567},{""page_index"":2,""viewing_time"":15551},{""page_index"":3,""viewing_time"":10750}]","43132","instructions","instructions","2","715706","0.0-2.0","29","4","","","","","","","","","","","","",""
"","null","fixation","html-keyboard-response","3","716216","0.0-3.0-0.0","29","4","<div style = ""font-size:60px;""> + </div>","null","","","","","","","","","","",""
"","null","learning_trial","html-keyboard-response","4","718724","0.0-3.0-1.0","29","4","
    <div class = 'grid-container'>
        <div class='header-text'> Friends </div>
        <div>
            Amari
            <img width='150' style='border:2px black solid;' src='stims/img/CFD-BM-237-188-N.jpg'>
        </div>
        <div> &nbsp; + &nbsp; </div>
        <div>
            David
            <img width='150' style='border:2px black solid;' src='stims/img/CFD-LM-216-082-N.jpg'>
        </div>
        <div class='header-text'> &nbsp; </div>
    </div>
    ","null","0","false","11","stims/img/CFD-LM-216-082-N.jpg","David","13","stims/img/CFD-BM-237-188-N.jpg","Amari","","",""
"","null","fixation","html-keyboard-response","5","719232","0.0-3.0-0.1","29","4","<div style = ""font-size:60px;""> + </div>","null","","","","","","","","","","",""
"","null","learning_trial","html-keyboard-response","6","721736","0.0-3.0-1.1","29","4","
    <div class = 'grid-container'>
        <div class='header-text'> Friends </div>
        <div>
            Alvin
            <img width='150' style='border:2px black solid;' src='stims/img/CFD-AM-207-108-N.jpg'>
        </div>
        <div> &nbsp; + &nbsp; </div>
        <div>
            Alexander
            <img width='150' style='border:2px black solid;' src='stims/img/CFD-WM-218-074-N.jpg'>
        </div>
        <div class='header-text'> &nbsp; </div>
    </div>
    ","null","0","false","3","stims/img/CFD-WM-218-074-N.jpg","Alexander","5","stims/img/CFD-AM-207-108-N.jpg","Alvin","","",""
"","null","fixation","html-keyboard-response","7","722243","0.0-3.0-0.2","29","4","<div style = ""font-size:60px;""> + </div>","null","","","","","","","","","","",""
"","null","learning_trial","html-keyboard-response","8","724751","0.0-3.0-1.2","29","4","
    <div class = 'grid-container'>
        <div class='header-text'> Friends </div>
        <div>
            Vincent
            <img width='150' style='border:2px black solid;' src='stims/img/CFD-AM-238-269-N.jpg'>
        </div>
        <div> &nbsp; + &nbsp; </div>
        <div>
            Serenity
            <img width='150' style='border:2px black solid;' src='stims/img/CFD-BF-235-168-N.jpg'>
        </div>
        <div class='header-text'> &nbsp; </div>
    </div>
    ","null","0","true","8","stims/img/CFD-AM-238-269-N.jpg","Vincent","9","stims/img/CFD-BF-235-168-N.jpg","Serenity","","",""
"","null","fixation","html-keyboard-response","9","725257","0.0-3.0-0.3","29","4","<div style = ""font-size:60px;""> + </div>","null","","","","","","","","","","",""
"","null","learning_trial","html-keyboard-response","10","727765","0.0-3.0-1.3","29","4","
    <div class = 'grid-container'>
        <div class='header-text'> Friends </div>
        <div>
            Isabella
            <img width='150' style='border:2px black solid;' src='stims/img/CFD-AF-239-171-N.jpg'>
        </div>
        <div> &nbsp; + &nbsp; </div>
        <div>
            Amy
            <img width='150' style='border:2px black solid;' src='stims/img/CFD-LF-252-172-N.jpg'>
        </div>
        <div class='header-text'> &nbsp; </div>
    </div>
    ","null","0","false","10","stims/img/CFD-LF-252-172-N.jpg","Amy","12","stims/img/CFD-AF-239-171-N.jpg","Isabella","","",""
"","null","fixation","html-keyboard-response","11","728272","0.0-3.0-0.4","29","4","<div style = ""font-size:60px;""> + </div>","null","","","","","","","","","","",""
"","null","learning_trial","html-keyboard-response","12","730780","0.0-3.0-1.4","29","4","
    <div class = 'grid-container'>
        <div class='header-text'> Friends </div>
        <div>
            Vincent
            <img width='150' style='border:2px black solid;' src='stims/img/CFD-AM-238-269-N.jpg'>
        </div>
        <div> &nbsp; + &nbsp; </div>
        <div>
            Mason
            <img width='150' style='border:2px black solid;' src='stims/img/CFD-BM-226-276-N.jpg'>
        </div>
        <div class='header-text'> &nbsp; </div>
    </div>
    ","null","0","false","1","stims/img/CFD-BM-226-276-N.jpg","Mason","8","stims/img/CFD-AM-238-269-N.jpg","Vincent","","",""
"","null","fixation","html-keyboard-response","13","731286","0.0-3.0-0.5","29","4","<div style = ""font-size:60px;""> + </div>","null","","","","","","","","","","",""
"","null","learning_trial","html-keyboard-response","14","733793","0.0-3.0-1.5","29","4","
    <div class = 'grid-container'>
        <div class='header-text'> Friends </div>
        <div>
            Amy
            <img width='150' style='border:2px black solid;' src='stims/img/CFD-LF-252-172-N.jpg'>
        </div>
        <div> &nbsp; + &nbsp; </div>
        <div>
            Vincent
            <img width='150' style='border:2px black solid;' src='stims/img/CFD-AM-238-269-N.jpg'>
        </div>
        <div class='header-text'> &nbsp; </div>
    </div>
    ","null","0","false","8","stims/img/CFD-AM-238-269-N.jpg","Vincent","10","stims/img/CFD-LF-252-172-N.jpg","Amy","","",""
"","null","fixation","html-keyboard-response","15","734300","0.0-3.0-0.6","29","4","<div style = ""font-size:60px;""> + </div>","null","","","","","","","","","","",""
"","null","learning_trial","html-keyboard-response","16","736808","0.0-3.0-1.6","29","4","
    <div class = 'grid-container'>
        <div class='header-text'> Friends </div>
        <div>
            Miriam
            <img width='150' style='border:2px black solid;' src='stims/img/CFD-WF-252-159-N.jpg'>
        </div>
        <div> &nbsp; + &nbsp; </div>
        <div>
            Emma
            <img width='150' style='border:2px black solid;' src='stims/img/CFD-AF-217-155-N.jpg'>
        </div>
        <div class='header-text'> &nbsp; </div>
    </div>
    ","null","0","true","4","stims/img/CFD-WF-252-159-N.jpg","Miriam","6","stims/img/CFD-AF-217-155-N.jpg","Emma","","",""
"","null","fixation","html-keyboard-response","17","737314","0.0-3.0-0.7","29","4","<div style = ""font-size:60px;""> + </div>","null","","","","","","","","","","",""
"","null","learning_trial","html-keyboard-response","18","739821","0.0-3.0-1.7","29","4","
    <div class = 'grid-container'>
        <div class='header-text'> Friends </div>
        <div>
            Emma
            <img width='150' style='border:2px black solid;' src='stims/img/CFD-AF-217-155-N.jpg'>
        </div>
        <div> &nbsp; + &nbsp; </div>
        <div>
            Nevaeh
            <img width='150' style='border:2px black solid;' src='stims/img/CFD-BF-232-187-N.jpg'>
        </div>
        <div class='header-text'> &nbsp; </div>
    </div>
    ","null","0","true","6","stims/img/CFD-AF-217-155-N.jpg","Emma","7","stims/img/CFD-BF-232-187-N.jpg","Nevaeh","","",""
"","null","fixation","html-keyboard-response","19","740327","0.0-3.0-0.8","29","4","<div style = ""font-size:60px;""> + </div>","null","","","","","","","","","","",""
"","null","learning_trial","html-keyboard-response","20","742832","0.0-3.0-1.8","29","4","
    <div class = 'grid-container'>
        <div class='header-text'> Friends </div>
        <div>
            Alexander
            <img width='150' style='border:2px black solid;' src='stims/img/CFD-WM-218-074-N.jpg'>
        </div>
        <div> &nbsp; + &nbsp; </div>
        <div>
            Victoria
            <img width='150' style='border:2px black solid;' src='stims/img/CFD-WF-232-161-N.jpg'>
        </div>
        <div class='header-text'> &nbsp; </div>
    </div>
    ","null","0","false","2","stims/img/CFD-WF-232-161-N.jpg","Victoria","3","stims/img/CFD-WM-218-074-N.jpg","Alexander","","",""
"","null","fixation","html-keyboard-response","21","743338","0.0-3.0-0.9","29","4","<div style = ""font-size:60px;""> + </div>","null","","","","","","","","","","",""
"","null","learning_trial","html-keyboard-response","22","745845","0.0-3.0-1.9","29","4","
    <div class = 'grid-container'>
        <div class='header-text'> Friends </div>
        <div>
            Alvin
            <img width='150' style='border:2px black solid;' src='stims/img/CFD-AM-207-108-N.jpg'>
        </div>
        <div> &nbsp; + &nbsp; </div>
        <div>
            Miriam
            <img width='150' style='border:2px black solid;' src='stims/img/CFD-WF-252-159-N.jpg'>
        </div>
        <div class='header-text'> &nbsp; </div>
    </div>
    ","null","0","false","4","stims/img/CFD-WF-252-159-N.jpg","Miriam","5","stims/img/CFD-AM-207-108-N.jpg","Alvin","","",""
"","null","fixation","html-keyboard-response","23","746351","0.0-3.0-0.10","29","4","<div style = ""font-size:60px;""> + </div>","null","","","","","","","","","","",""
"","null","learning_trial","html-keyboard-response","24","748858","0.0-3.0-1.10","29","4","
    <div class = 'grid-container'>
        <div class='header-text'> Friends </div>
        <div>
            Miriam
            <img width='150' style='border:2px black solid;' src='stims/img/CFD-WF-252-159-N.jpg'>
        </div>
        <div> &nbsp; + &nbsp; </div>
        <div>
            Victoria
            <img width='150' style='border:2px black solid;' src='stims/img/CFD-WF-232-161-N.jpg'>
        </div>
        <div class='header-text'> &nbsp; </div>
    </div>
    ","null","0","false","2","stims/img/CFD-WF-232-161-N.jpg","Victoria","4","stims/img/CFD-WF-252-159-N.jpg","Miriam","","",""
"","null","fixation","html-keyboard-response","25","749365","0.0-3.0-0.11","29","4","<div style = ""font-size:60px;""> + </div>","null","","","","","","","","","","",""
"","null","learning_trial","html-keyboard-response","26","751871","0.0-3.0-1.11","29","4","
    <div class = 'grid-container'>
        <div class='header-text'> Friends </div>
        <div>
            Alexander
            <img width='150' style='border:2px black solid;' src='stims/img/CFD-WM-218-074-N.jpg'>
        </div>
        <div> &nbsp; + &nbsp; </div>
        <div>
            Miriam
            <img width='150' style='border:2px black solid;' src='stims/img/CFD-WF-252-159-N.jpg'>
        </div>
        <div class='header-text'> &nbsp; </div>
    </div>
    ","null","0","true","3","stims/img/CFD-WM-218-074-N.jpg","Alexander","4","stims/img/CFD-WF-252-159-N.jpg","Miriam","","",""
"","null","fixation","html-keyboard-response","27","752377","0.0-3.0-0.12","29","4","<div style = ""font-size:60px;""> + </div>","null","","","","","","","","","","",""
"","null","learning_trial","html-keyboard-response","28","754884","0.0-3.0-1.12","29","4","
    <div class = 'grid-container'>
        <div class='header-text'> Friends </div>
        <div>
            Alvin
            <img width='150' style='border:2px black solid;' src='stims/img/CFD-AM-207-108-N.jpg'>
        </div>
        <div> &nbsp; + &nbsp; </div>
        <div>
            Nevaeh
            <img width='150' style='border:2px black solid;' src='stims/img/CFD-BF-232-187-N.jpg'>
        </div>
        <div class='header-text'> &nbsp; </div>
    </div>
    ","null","0","true","5","stims/img/CFD-AM-207-108-N.jpg","Alvin","7","stims/img/CFD-BF-232-187-N.jpg","Nevaeh","","",""
"","null","fixation","html-keyboard-response","29","755390","0.0-3.0-0.13","29","4","<div style = ""font-size:60px;""> + </div>","null","","","","","","","","","","",""
"","null","learning_trial","html-keyboard-response","30","757898","0.0-3.0-1.13","29","4","
    <div class = 'grid-container'>
        <div class='header-text'> Friends </div>
        <div>
            Isabella
            <img width='150' style='border:2px black solid;' src='stims/img/CFD-AF-239-171-N.jpg'>
        </div>
        <div> &nbsp; + &nbsp; </div>
        <div>
            David
            <img width='150' style='border:2px black solid;' src='stims/img/CFD-LM-216-082-N.jpg'>
        </div>
        <div class='header-text'> &nbsp; </div>
    </div>
    ","null","0","false","11","stims/img/CFD-LM-216-082-N.jpg","David","12","stims/img/CFD-AF-239-171-N.jpg","Isabella","","",""
"","null","fixation","html-keyboard-response","31","758404","0.0-3.0-0.14","29","4","<div style = ""font-size:60px;""> + </div>","null","","","","","","","","","","",""
"","null","learning_trial","html-keyboard-response","32","760911","0.0-3.0-1.14","29","4","
    <div class = 'grid-container'>
        <div class='header-text'> Friends </div>
        <div>
            Mason
            <img width='150' style='border:2px black solid;' src='stims/img/CFD-BM-226-276-N.jpg'>
        </div>
        <div> &nbsp; + &nbsp; </div>
        <div>
            Victoria
            <img width='150' style='border:2px black solid;' src='stims/img/CFD-WF-232-161-N.jpg'>
        </div>
        <div class='header-text'> &nbsp; </div>
    </div>
    ","null","0","true","1","stims/img/CFD-BM-226-276-N.jpg","Mason","2","stims/img/CFD-WF-232-161-N.jpg","Victoria","","",""
"","null","fixation","html-keyboard-response","33","761417","0.0-3.0-0.15","29","4","<div style = ""font-size:60px;""> + </div>","null","","","","","","","","","","",""
"","null","learning_trial","html-keyboard-response","34","763924","0.0-3.0-1.15","29","4","
    <div class = 'grid-container'>
        <div class='header-text'> Friends </div>
        <div>
            Isabella
            <img width='150' style='border:2px black solid;' src='stims/img/CFD-AF-239-171-N.jpg'>
        </div>
        <div> &nbsp; + &nbsp; </div>
        <div>
            Amari
            <img width='150' style='border:2px black solid;' src='stims/img/CFD-BM-237-188-N.jpg'>
        </div>
        <div class='header-text'> &nbsp; </div>
    </div>
    ","null","0","true","12","stims/img/CFD-AF-239-171-N.jpg","Isabella","13","stims/img/CFD-BM-237-188-N.jpg","Amari","","",""
"","null","fixation","html-keyboard-response","35","764431","0.0-3.0-0.16","29","4","<div style = ""font-size:60px;""> + </div>","null","","","","","","","","","","",""
"","null","learning_trial","html-keyboard-response","36","766939","0.0-3.0-1.16","29","4","
    <div class = 'grid-container'>
        <div class='header-text'> Friends </div>
        <div>
            Serenity
            <img width='150' style='border:2px black solid;' src='stims/img/CFD-BF-235-168-N.jpg'>
        </div>
        <div> &nbsp; + &nbsp; </div>
        <div>
            David
            <img width='150' style='border:2px black solid;' src='stims/img/CFD-LM-216-082-N.jpg'>
        </div>
        <div class='header-text'> &nbsp; </div>
    </div>
    ","null","0","true","9","stims/img/CFD-BF-235-168-N.jpg","Serenity","11","stims/img/CFD-LM-216-082-N.jpg","David","","",""
"","3156","break","html-keyboard-response","37","770094","0.0-3.0-2.16-0.16","29","4","If you'd like to take a break before continuing, 
    please do so now. <p>To continue, please press the spacebar.</p>"," ","","","","","","","","","","",""
"","null","fixation","html-keyboard-response","38","770597","0.0-3.0-0.17","29","4","<div style = ""font-size:60px;""> + </div>","null","","","","","","","","","","",""
"","null","learning_trial","html-keyboard-response","39","773104","0.0-3.0-1.17","29","4","
    <div class = 'grid-container'>
        <div class='header-text'> Friends </div>
        <div>
            David
            <img width='150' style='border:2px black solid;' src='stims/img/CFD-LM-216-082-N.jpg'>
        </div>
        <div> &nbsp; + &nbsp; </div>
        <div>
            Isabella
            <img width='150' style='border:2px black solid;' src='stims/img/CFD-AF-239-171-N.jpg'>
        </div>
        <div class='header-text'> &nbsp; </div>
    </div>
    ","null","1","true","11","stims/img/CFD-LM-216-082-N.jpg","David","12","stims/img/CFD-AF-239-171-N.jpg","Isabella","","",""
"","null","fixation","html-keyboard-response","40","773610","0.0-3.0-0.18","29","4","<div style = ""font-size:60px;""> + </div>","null","","","","","","","","","","",""
"","null","learning_trial","html-keyboard-response","41","776117","0.0-3.0-1.18","29","4","
    <div class = 'grid-container'>
        <div class='header-text'> Friends </div>
        <div>
            Mason
            <img width='150' style='border:2px black solid;' src='stims/img/CFD-BM-226-276-N.jpg'>
        </div>
        <div> &nbsp; + &nbsp; </div>
        <div>
            Vincent
            <img width='150' style='border:2px black solid;' src='stims/img/CFD-AM-238-269-N.jpg'>
        </div>
        <div class='header-text'> &nbsp; </div>
    </div>
    ","null","1","true","1","stims/img/CFD-BM-226-276-N.jpg","Mason","8","stims/img/CFD-AM-238-269-N.jpg","Vincent","","",""
"","null","fixation","html-keyboard-response","42","776623","0.0-3.0-0.19","29","4","<div style = ""font-size:60px;""> + </div>","null","","","","","","","","","","",""
"","null","learning_trial","html-keyboard-response","43","779131","0.0-3.0-1.19","29","4","
    <div class = 'grid-container'>
        <div class='header-text'> Friends </div>
        <div>
            Emma
            <img width='150' style='border:2px black solid;' src='stims/img/CFD-AF-217-155-N.jpg'>
        </div>
        <div> &nbsp; + &nbsp; </div>
        <div>
            Nevaeh
            <img width='150' style='border:2px black solid;' src='stims/img/CFD-BF-232-187-N.jpg'>
        </div>
        <div class='header-text'> &nbsp; </div>
    </div>
    ","null","1","true","6","stims/img/CFD-AF-217-155-N.jpg","Emma","7","stims/img/CFD-BF-232-187-N.jpg","Nevaeh","","",""
"","null","fixation","html-keyboard-response","44","779637","0.0-3.0-0.20","29","4","<div style = ""font-size:60px;""> + </div>","null","","","","","","","","","","",""
"","null","learning_trial","html-keyboard-response","45","782144","0.0-3.0-1.20","29","4","
    <div class = 'grid-container'>
        <div class='header-text'> Friends </div>
        <div>
            David
            <img width='150' style='border:2px black solid;' src='stims/img/CFD-LM-216-082-N.jpg'>
        </div>
        <div> &nbsp; + &nbsp; </div>
        <div>
            Serenity
            <img width='150' style='border:2px black solid;' src='stims/img/CFD-BF-235-168-N.jpg'>
        </div>
        <div class='header-text'> &nbsp; </div>
    </div>
    ","null","1","false","9","stims/img/CFD-BF-235-168-N.jpg","Serenity","11","stims/img/CFD-LM-216-082-N.jpg","David","","",""
"","null","fixation","html-keyboard-response","46","782651","0.0-3.0-0.21","29","4","<div style = ""font-size:60px;""> + </div>","null","","","","","","","","","","",""
"","null","learning_trial","html-keyboard-response","47","785157","0.0-3.0-1.21","29","4","
    <div class = 'grid-container'>
        <div class='header-text'> Friends </div>
        <div>
            Alvin
            <img width='150' style='border:2px black solid;' src='stims/img/CFD-AM-207-108-N.jpg'>
        </div>
        <div> &nbsp; + &nbsp; </div>
        <div>
            Alexander
            <img width='150' style='border:2px black solid;' src='stims/img/CFD-WM-218-074-N.jpg'>
        </div>
        <div class='header-text'> &nbsp; </div>
    </div>
    ","null","1","false","3","stims/img/CFD-WM-218-074-N.jpg","Alexander","5","stims/img/CFD-AM-207-108-N.jpg","Alvin","","",""
"","null","fixation","html-keyboard-response","48","785664","0.0-3.0-0.22","29","4","<div style = ""font-size:60px;""> + </div>","null","","","","","","","","","","",""
"","null","learning_trial","html-keyboard-response","49","788171","0.0-3.0-1.22","29","4","
    <div class = 'grid-container'>
        <div class='header-text'> Friends </div>
        <div>
            Alexander
            <img width='150' style='border:2px black solid;' src='stims/img/CFD-WM-218-074-N.jpg'>
        </div>
        <div> &nbsp; + &nbsp; </div>
        <div>
            Victoria
            <img width='150' style='border:2px black solid;' src='stims/img/CFD-WF-232-161-N.jpg'>
        </div>
        <div class='header-text'> &nbsp; </div>
    </div>
    ","null","1","false","2","stims/img/CFD-WF-232-161-N.jpg","Victoria","3","stims/img/CFD-WM-218-074-N.jpg","Alexander","","",""
"","null","fixation","html-keyboard-response","50","788677","0.0-3.0-0.23","29","4","<div style = ""font-size:60px;""> + </div>","null","","","","","","","","","","",""
"","null","learning_trial","html-keyboard-response","51","791184","0.0-3.0-1.23","29","4","
    <div class = 'grid-container'>
        <div class='header-text'> Friends </div>
        <div>
            Alvin
            <img width='150' style='border:2px black solid;' src='stims/img/CFD-AM-207-108-N.jpg'>
        </div>
        <div> &nbsp; + &nbsp; </div>
        <div>
            Nevaeh
            <img width='150' style='border:2px black solid;' src='stims/img/CFD-BF-232-187-N.jpg'>
        </div>
        <div class='header-text'> &nbsp; </div>
    </div>
    ","null","1","true","5","stims/img/CFD-AM-207-108-N.jpg","Alvin","7","stims/img/CFD-BF-232-187-N.jpg","Nevaeh","","",""
"","null","fixation","html-keyboard-response","52","791690","0.0-3.0-0.24","29","4","<div style = ""font-size:60px;""> + </div>","null","","","","","","","","","","",""
"","null","learning_trial","html-keyboard-response","53","794197","0.0-3.0-1.24","29","4","
    <div class = 'grid-container'>
        <div class='header-text'> Friends </div>
        <div>
            Emma
            <img width='150' style='border:2px black solid;' src='stims/img/CFD-AF-217-155-N.jpg'>
        </div>
        <div> &nbsp; + &nbsp; </div>
        <div>
            Miriam
            <img width='150' style='border:2px black solid;' src='stims/img/CFD-WF-252-159-N.jpg'>
        </div>
        <div class='header-text'> &nbsp; </div>
    </div>
    ","null","1","false","4","stims/img/CFD-WF-252-159-N.jpg","Miriam","6","stims/img/CFD-AF-217-155-N.jpg","Emma","","",""
"","null","fixation","html-keyboard-response","54","794699","0.0-3.0-0.25","29","4","<div style = ""font-size:60px;""> + </div>","null","","","","","","","","","","",""
"","null","learning_trial","html-keyboard-response","55","797207","0.0-3.0-1.25","29","4","
    <div class = 'grid-container'>
        <div class='header-text'> Friends </div>
        <div>
            Isabella
            <img width='150' style='border:2px black solid;' src='stims/img/CFD-AF-239-171-N.jpg'>
        </div>
        <div> &nbsp; + &nbsp; </div>
        <div>
            Amy
            <img width='150' style='border:2px black solid;' src='stims/img/CFD-LF-252-172-N.jpg'>
        </div>
        <div class='header-text'> &nbsp; </div>
    </div>
    ","null","1","false","10","stims/img/CFD-LF-252-172-N.jpg","Amy","12","stims/img/CFD-AF-239-171-N.jpg","Isabella","","",""
"","null","fixation","html-keyboard-response","56","797712","0.0-3.0-0.26","29","4","<div style = ""font-size:60px;""> + </div>","null","","","","","","","","","","",""
"","null","learning_trial","html-keyboard-response","57","800219","0.0-3.0-1.26","29","4","
    <div class = 'grid-container'>
        <div class='header-text'> Friends </div>
        <div>
            David
            <img width='150' style='border:2px black solid;' src='stims/img/CFD-LM-216-082-N.jpg'>
        </div>
        <div> &nbsp; + &nbsp; </div>
        <div>
            Amari
            <img width='150' style='border:2px black solid;' src='stims/img/CFD-BM-237-188-N.jpg'>
        </div>
        <div class='header-text'> &nbsp; </div>
    </div>
    ","null","1","true","11","stims/img/CFD-LM-216-082-N.jpg","David","13","stims/img/CFD-BM-237-188-N.jpg","Amari","","",""
"","null","fixation","html-keyboard-response","58","800725","0.0-3.0-0.27","29","4","<div style = ""font-size:60px;""> + </div>","null","","","","","","","","","","",""
"","null","learning_trial","html-keyboard-response","59","803231","0.0-3.0-1.27","29","4","
    <div class = 'grid-container'>
        <div class='header-text'> Friends </div>
        <div>
            Alexander
            <img width='150' style='border:2px black solid;' src='stims/img/CFD-WM-218-074-N.jpg'>
        </div>
        <div> &nbsp; + &nbsp; </div>
        <div>
            Miriam
            <img width='150' style='border:2px black solid;' src='stims/img/CFD-WF-252-159-N.jpg'>
        </div>
        <div class='header-text'> &nbsp; </div>
    </div>
    ","null","1","true","3","stims/img/CFD-WM-218-074-N.jpg","Alexander","4","stims/img/CFD-WF-252-159-N.jpg","Miriam","","",""
"","null","fixation","html-keyboard-response","60","803737","0.0-3.0-0.28","29","4","<div style = ""font-size:60px;""> + </div>","null","","","","","","","","","","",""
"","null","learning_trial","html-keyboard-response","61","806245","0.0-3.0-1.28","29","4","
    <div class = 'grid-container'>
        <div class='header-text'> Friends </div>
        <div>
            Isabella
            <img width='150' style='border:2px black solid;' src='stims/img/CFD-AF-239-171-N.jpg'>
        </div>
        <div> &nbsp; + &nbsp; </div>
        <div>
            Amari
            <img width='150' style='border:2px black solid;' src='stims/img/CFD-BM-237-188-N.jpg'>
        </div>
        <div class='header-text'> &nbsp; </div>
    </div>
    ","null","1","true","12","stims/img/CFD-AF-239-171-N.jpg","Isabella","13","stims/img/CFD-BM-237-188-N.jpg","Amari","","",""
"","null","fixation","html-keyboard-response","62","806750","0.0-3.0-0.29","29","4","<div style = ""font-size:60px;""> + </div>","null","","","","","","","","","","",""
"","null","learning_trial","html-keyboard-response","63","809257","0.0-3.0-1.29","29","4","
    <div class = 'grid-container'>
        <div class='header-text'> Friends </div>
        <div>
            Miriam
            <img width='150' style='border:2px black solid;' src='stims/img/CFD-WF-252-159-N.jpg'>
        </div>
        <div> &nbsp; + &nbsp; </div>
        <div>
            Victoria
            <img width='150' style='border:2px black solid;' src='stims/img/CFD-WF-232-161-N.jpg'>
        </div>
        <div class='header-text'> &nbsp; </div>
    </div>
    ","null","1","false","2","stims/img/CFD-WF-232-161-N.jpg","Victoria","4","stims/img/CFD-WF-252-159-N.jpg","Miriam","","",""
"","null","fixation","html-keyboard-response","64","809765","0.0-3.0-0.30","29","4","<div style = ""font-size:60px;""> + </div>","null","","","","","","","","","","",""
"","null","learning_trial","html-keyboard-response","65","812271","0.0-3.0-1.30","29","4","
    <div class = 'grid-container'>
        <div class='header-text'> Friends </div>
        <div>
            Amy
            <img width='150' style='border:2px black solid;' src='stims/img/CFD-LF-252-172-N.jpg'>
        </div>
        <div> &nbsp; + &nbsp; </div>
        <div>
            Vincent
            <img width='150' style='border:2px black solid;' src='stims/img/CFD-AM-238-269-N.jpg'>
        </div>
        <div class='header-text'> &nbsp; </div>
    </div>
    ","null","1","false","8","stims/img/CFD-AM-238-269-N.jpg","Vincent","10","stims/img/CFD-LF-252-172-N.jpg","Amy","","",""
"","null","fixation","html-keyboard-response","66","812777","0.0-3.0-0.31","29","4","<div style = ""font-size:60px;""> + </div>","null","","","","","","","","","","",""
"","null","learning_trial","html-keyboard-response","67","815280","0.0-3.0-1.31","29","4","
    <div class = 'grid-container'>
        <div class='header-text'> Friends </div>
        <div>
            Serenity
            <img width='150' style='border:2px black solid;' src='stims/img/CFD-BF-235-168-N.jpg'>
        </div>
        <div> &nbsp; + &nbsp; </div>
        <div>
            Vincent
            <img width='150' style='border:2px black solid;' src='stims/img/CFD-AM-238-269-N.jpg'>
        </div>
        <div class='header-text'> &nbsp; </div>
    </div>
    ","null","1","false","8","stims/img/CFD-AM-238-269-N.jpg","Vincent","9","stims/img/CFD-BF-235-168-N.jpg","Serenity","","",""
"","null","fixation","html-keyboard-response","68","815786","0.0-3.0-0.32","29","4","<div style = ""font-size:60px;""> + </div>","null","","","","","","","","","","",""
"","null","learning_trial","html-keyboard-response","69","818292","0.0-3.0-1.32","29","4","
    <div class = 'grid-container'>
        <div class='header-text'> Friends </div>
        <div>
            Mason
            <img width='150' style='border:2px black solid;' src='stims/img/CFD-BM-226-276-N.jpg'>
        </div>
        <div> &nbsp; + &nbsp; </div>
        <div>
            Victoria
            <img width='150' style='border:2px black solid;' src='stims/img/CFD-WF-232-161-N.jpg'>
        </div>
        <div class='header-text'> &nbsp; </div>
    </div>
    ","null","1","true","1","stims/img/CFD-BM-226-276-N.jpg","Mason","2","stims/img/CFD-WF-232-161-N.jpg","Victoria","","",""
"","null","fixation","html-keyboard-response","70","818798","0.0-3.0-0.33","29","4","<div style = ""font-size:60px;""> + </div>","null","","","","","","","","","","",""
"","null","learning_trial","html-keyboard-response","71","821305","0.0-3.0-1.33","29","4","
    <div class = 'grid-container'>
        <div class='header-text'> Friends </div>
        <div>
            Miriam
            <img width='150' style='border:2px black solid;' src='stims/img/CFD-WF-252-159-N.jpg'>
        </div>
        <div> &nbsp; + &nbsp; </div>
        <div>
            Alvin
            <img width='150' style='border:2px black solid;' src='stims/img/CFD-AM-207-108-N.jpg'>
        </div>
        <div class='header-text'> &nbsp; </div>
    </div>
    ","null","1","true","4","stims/img/CFD-WF-252-159-N.jpg","Miriam","5","stims/img/CFD-AM-207-108-N.jpg","Alvin","","",""
"","1589","break","html-keyboard-response","72","822896","0.0-3.0-2.33-0.33","29","4","If you'd like to take a break before continuing, 
    please do so now. <p>To continue, please press the spacebar.</p>"," ","","","","","","","","","","",""
"","null","fixation","html-keyboard-response","73","823399","0.0-3.0-0.34","29","4","<div style = ""font-size:60px;""> + </div>","null","","","","","","","","","","",""
"","null","learning_trial","html-keyboard-response","74","825906","0.0-3.0-1.34","29","4","
    <div class = 'grid-container'>
        <div class='header-text'> Friends </div>
        <div>
            David
            <img width='150' style='border:2px black solid;' src='stims/img/CFD-LM-216-082-N.jpg'>
        </div>
        <div> &nbsp; + &nbsp; </div>
        <div>
            Serenity
            <img width='150' style='border:2px black solid;' src='stims/img/CFD-BF-235-168-N.jpg'>
        </div>
        <div class='header-text'> &nbsp; </div>
    </div>
    ","null","2","false","9","stims/img/CFD-BF-235-168-N.jpg","Serenity","11","stims/img/CFD-LM-216-082-N.jpg","David","","",""
"","null","fixation","html-keyboard-response","75","826413","0.0-3.0-0.35","29","4","<div style = ""font-size:60px;""> + </div>","null","","","","","","","","","","",""
"","null","learning_trial","html-keyboard-response","76","828919","0.0-3.0-1.35","29","4","
    <div class = 'grid-container'>
        <div class='header-text'> Friends </div>
        <div>
            Alexander
            <img width='150' style='border:2px black solid;' src='stims/img/CFD-WM-218-074-N.jpg'>
        </div>
        <div> &nbsp; + &nbsp; </div>
        <div>
            Victoria
            <img width='150' style='border:2px black solid;' src='stims/img/CFD-WF-232-161-N.jpg'>
        </div>
        <div class='header-text'> &nbsp; </div>
    </div>
    ","null","2","false","2","stims/img/CFD-WF-232-161-N.jpg","Victoria","3","stims/img/CFD-WM-218-074-N.jpg","Alexander","","",""
"","null","fixation","html-keyboard-response","77","829423","0.0-3.0-0.36","29","4","<div style = ""font-size:60px;""> + </div>","null","","","","","","","","","","",""
"","null","learning_trial","html-keyboard-response","78","831930","0.0-3.0-1.36","29","4","
    <div class = 'grid-container'>
        <div class='header-text'> Friends </div>
        <div>
            Amari
            <img width='150' style='border:2px black solid;' src='stims/img/CFD-BM-237-188-N.jpg'>
        </div>
        <div> &nbsp; + &nbsp; </div>
        <div>
            Isabella
            <img width='150' style='border:2px black solid;' src='stims/img/CFD-AF-239-171-N.jpg'>
        </div>
        <div class='header-text'> &nbsp; </div>
    </div>
    ","null","2","false","12","stims/img/CFD-AF-239-171-N.jpg","Isabella","13","stims/img/CFD-BM-237-188-N.jpg","Amari","","",""
"","null","fixation","html-keyboard-response","79","832432","0.0-3.0-0.37","29","4","<div style = ""font-size:60px;""> + </div>","null","","","","","","","","","","",""
"","null","learning_trial","html-keyboard-response","80","834938","0.0-3.0-1.37","29","4","
    <div class = 'grid-container'>
        <div class='header-text'> Friends </div>
        <div>
            Amari
            <img width='150' style='border:2px black solid;' src='stims/img/CFD-BM-237-188-N.jpg'>
        </div>
        <div> &nbsp; + &nbsp; </div>
        <div>
            David
            <img width='150' style='border:2px black solid;' src='stims/img/CFD-LM-216-082-N.jpg'>
        </div>
        <div class='header-text'> &nbsp; </div>
    </div>
    ","null","2","false","11","stims/img/CFD-LM-216-082-N.jpg","David","13","stims/img/CFD-BM-237-188-N.jpg","Amari","","",""
"","null","fixation","html-keyboard-response","81","835441","0.0-3.0-0.38","29","4","<div style = ""font-size:60px;""> + </div>","null","","","","","","","","","","",""
"","null","learning_trial","html-keyboard-response","82","837947","0.0-3.0-1.38","29","4","
    <div class = 'grid-container'>
        <div class='header-text'> Friends </div>
        <div>
            Amy
            <img width='150' style='border:2px black solid;' src='stims/img/CFD-LF-252-172-N.jpg'>
        </div>
        <div> &nbsp; + &nbsp; </div>
        <div>
            Vincent
            <img width='150' style='border:2px black solid;' src='stims/img/CFD-AM-238-269-N.jpg'>
        </div>
        <div class='header-text'> &nbsp; </div>
    </div>
    ","null","2","false","8","stims/img/CFD-AM-238-269-N.jpg","Vincent","10","stims/img/CFD-LF-252-172-N.jpg","Amy","","",""
"","null","fixation","html-keyboard-response","83","838453","0.0-3.0-0.39","29","4","<div style = ""font-size:60px;""> + </div>","null","","","","","","","","","","",""
"","null","learning_trial","html-keyboard-response","84","840954","0.0-3.0-1.39","29","4","
    <div class = 'grid-container'>
        <div class='header-text'> Friends </div>
        <div>
            Victoria
            <img width='150' style='border:2px black solid;' src='stims/img/CFD-WF-232-161-N.jpg'>
        </div>
        <div> &nbsp; + &nbsp; </div>
        <div>
            Miriam
            <img width='150' style='border:2px black solid;' src='stims/img/CFD-WF-252-159-N.jpg'>
        </div>
        <div class='header-text'> &nbsp; </div>
    </div>
    ","null","2","true","2","stims/img/CFD-WF-232-161-N.jpg","Victoria","4","stims/img/CFD-WF-252-159-N.jpg","Miriam","","",""
"","null","fixation","html-keyboard-response","85","841458","0.0-3.0-0.40","29","4","<div style = ""font-size:60px;""> + </div>","null","","","","","","","","","","",""
"","null","learning_trial","html-keyboard-response","86","843962","0.0-3.0-1.40","29","4","
    <div class = 'grid-container'>
        <div class='header-text'> Friends </div>
        <div>
            Victoria
            <img width='150' style='border:2px black solid;' src='stims/img/CFD-WF-232-161-N.jpg'>
        </div>
        <div> &nbsp; + &nbsp; </div>
        <div>
            Mason
            <img width='150' style='border:2px black solid;' src='stims/img/CFD-BM-226-276-N.jpg'>
        </div>
        <div class='header-text'> &nbsp; </div>
    </div>
    ","null","2","false","1","stims/img/CFD-BM-226-276-N.jpg","Mason","2","stims/img/CFD-WF-232-161-N.jpg","Victoria","","",""
"","null","fixation","html-keyboard-response","87","844468","0.0-3.0-0.41","29","4","<div style = ""font-size:60px;""> + </div>","null","","","","","","","","","","",""
"","null","learning_trial","html-keyboard-response","88","846975","0.0-3.0-1.41","29","4","
    <div class = 'grid-container'>
        <div class='header-text'> Friends </div>
        <div>
            Miriam
            <img width='150' style='border:2px black solid;' src='stims/img/CFD-WF-252-159-N.jpg'>
        </div>
        <div> &nbsp; + &nbsp; </div>
        <div>
            Alvin
            <img width='150' style='border:2px black solid;' src='stims/img/CFD-AM-207-108-N.jpg'>
        </div>
        <div class='header-text'> &nbsp; </div>
    </div>
    ","null","2","true","4","stims/img/CFD-WF-252-159-N.jpg","Miriam","5","stims/img/CFD-AM-207-108-N.jpg","Alvin","","",""
"","null","fixation","html-keyboard-response","89","847481","0.0-3.0-0.42","29","4","<div style = ""font-size:60px;""> + </div>","null","","","","","","","","","","",""
"","null","learning_trial","html-keyboard-response","90","849988","0.0-3.0-1.42","29","4","
    <div class = 'grid-container'>
        <div class='header-text'> Friends </div>
        <div>
            Alexander
            <img width='150' style='border:2px black solid;' src='stims/img/CFD-WM-218-074-N.jpg'>
        </div>
        <div> &nbsp; + &nbsp; </div>
        <div>
            Alvin
            <img width='150' style='border:2px black solid;' src='stims/img/CFD-AM-207-108-N.jpg'>
        </div>
        <div class='header-text'> &nbsp; </div>
    </div>
    ","null","2","true","3","stims/img/CFD-WM-218-074-N.jpg","Alexander","5","stims/img/CFD-AM-207-108-N.jpg","Alvin","","",""
"","null","fixation","html-keyboard-response","91","850490","0.0-3.0-0.43","29","4","<div style = ""font-size:60px;""> + </div>","null","","","","","","","","","","",""
"","null","learning_trial","html-keyboard-response","92","852996","0.0-3.0-1.43","29","4","
    <div class = 'grid-container'>
        <div class='header-text'> Friends </div>
        <div>
            Miriam
            <img width='150' style='border:2px black solid;' src='stims/img/CFD-WF-252-159-N.jpg'>
        </div>
        <div> &nbsp; + &nbsp; </div>
        <div>
            Alexander
            <img width='150' style='border:2px black solid;' src='stims/img/CFD-WM-218-074-N.jpg'>
        </div>
        <div class='header-text'> &nbsp; </div>
    </div>
    ","null","2","false","3","stims/img/CFD-WM-218-074-N.jpg","Alexander","4","stims/img/CFD-WF-252-159-N.jpg","Miriam","","",""
"","null","fixation","html-keyboard-response","93","853503","0.0-3.0-0.44","29","4","<div style = ""font-size:60px;""> + </div>","null","","","","","","","","","","",""
"","null","learning_trial","html-keyboard-response","94","856011","0.0-3.0-1.44","29","4","
    <div class = 'grid-container'>
        <div class='header-text'> Friends </div>
        <div>
            Alvin
            <img width='150' style='border:2px black solid;' src='stims/img/CFD-AM-207-108-N.jpg'>
        </div>
        <div> &nbsp; + &nbsp; </div>
        <div>
            Nevaeh
            <img width='150' style='border:2px black solid;' src='stims/img/CFD-BF-232-187-N.jpg'>
        </div>
        <div class='header-text'> &nbsp; </div>
    </div>
    ","null","2","true","5","stims/img/CFD-AM-207-108-N.jpg","Alvin","7","stims/img/CFD-BF-232-187-N.jpg","Nevaeh","","",""
"","null","fixation","html-keyboard-response","95","856512","0.0-3.0-0.45","29","4","<div style = ""font-size:60px;""> + </div>","null","","","","","","","","","","",""
"","null","learning_trial","html-keyboard-response","96","859019","0.0-3.0-1.45","29","4","
    <div class = 'grid-container'>
        <div class='header-text'> Friends </div>
        <div>
            Miriam
            <img width='150' style='border:2px black solid;' src='stims/img/CFD-WF-252-159-N.jpg'>
        </div>
        <div> &nbsp; + &nbsp; </div>
        <div>
            Emma
            <img width='150' style='border:2px black solid;' src='stims/img/CFD-AF-217-155-N.jpg'>
        </div>
        <div class='header-text'> &nbsp; </div>
    </div>
    ","null","2","true","4","stims/img/CFD-WF-252-159-N.jpg","Miriam","6","stims/img/CFD-AF-217-155-N.jpg","Emma","","",""
"","null","fixation","html-keyboard-response","97","859525","0.0-3.0-0.46","29","4","<div style = ""font-size:60px;""> + </div>","null","","","","","","","","","","",""
"","null","learning_trial","html-keyboard-response","98","862028","0.0-3.0-1.46","29","4","
    <div class = 'grid-container'>
        <div class='header-text'> Friends </div>
        <div>
            Isabella
            <img width='150' style='border:2px black solid;' src='stims/img/CFD-AF-239-171-N.jpg'>
        </div>
        <div> &nbsp; + &nbsp; </div>
        <div>
            Amy
            <img width='150' style='border:2px black solid;' src='stims/img/CFD-LF-252-172-N.jpg'>
        </div>
        <div class='header-text'> &nbsp; </div>
    </div>
    ","null","2","false","10","stims/img/CFD-LF-252-172-N.jpg","Amy","12","stims/img/CFD-AF-239-171-N.jpg","Isabella","","",""
"","null","fixation","html-keyboard-response","99","862533","0.0-3.0-0.47","29","4","<div style = ""font-size:60px;""> + </div>","null","","","","","","","","","","",""
"","null","learning_trial","html-keyboard-response","100","865041","0.0-3.0-1.47","29","4","
    <div class = 'grid-container'>
        <div class='header-text'> Friends </div>
        <div>
            Vincent
            <img width='150' style='border:2px black solid;' src='stims/img/CFD-AM-238-269-N.jpg'>
        </div>
        <div> &nbsp; + &nbsp; </div>
        <div>
            Mason
            <img width='150' style='border:2px black solid;' src='stims/img/CFD-BM-226-276-N.jpg'>
        </div>
        <div class='header-text'> &nbsp; </div>
    </div>
    ","null","2","false","1","stims/img/CFD-BM-226-276-N.jpg","Mason","8","stims/img/CFD-AM-238-269-N.jpg","Vincent","","",""
"","null","fixation","html-keyboard-response","101","865547","0.0-3.0-0.48","29","4","<div style = ""font-size:60px;""> + </div>","null","","","","","","","","","","",""
"","null","learning_trial","html-keyboard-response","102","868054","0.0-3.0-1.48","29","4","
    <div class = 'grid-container'>
        <div class='header-text'> Friends </div>
        <div>
            Emma
            <img width='150' style='border:2px black solid;' src='stims/img/CFD-AF-217-155-N.jpg'>
        </div>
        <div> &nbsp; + &nbsp; </div>
        <div>
            Nevaeh
            <img width='150' style='border:2px black solid;' src='stims/img/CFD-BF-232-187-N.jpg'>
        </div>
        <div class='header-text'> &nbsp; </div>
    </div>
    ","null","2","true","6","stims/img/CFD-AF-217-155-N.jpg","Emma","7","stims/img/CFD-BF-232-187-N.jpg","Nevaeh","","",""
"","null","fixation","html-keyboard-response","103","868559","0.0-3.0-0.49","29","4","<div style = ""font-size:60px;""> + </div>","null","","","","","","","","","","",""
"","null","learning_trial","html-keyboard-response","104","871067","0.0-3.0-1.49","29","4","
    <div class = 'grid-container'>
        <div class='header-text'> Friends </div>
        <div>
            David
            <img width='150' style='border:2px black solid;' src='stims/img/CFD-LM-216-082-N.jpg'>
        </div>
        <div> &nbsp; + &nbsp; </div>
        <div>
            Isabella
            <img width='150' style='border:2px black solid;' src='stims/img/CFD-AF-239-171-N.jpg'>
        </div>
        <div class='header-text'> &nbsp; </div>
    </div>
    ","null","2","true","11","stims/img/CFD-LM-216-082-N.jpg","David","12","stims/img/CFD-AF-239-171-N.jpg","Isabella","","",""
"","null","fixation","html-keyboard-response","105","871573","0.0-3.0-0.50","29","4","<div style = ""font-size:60px;""> + </div>","null","","","","","","","","","","",""
"","null","learning_trial","html-keyboard-response","106","874080","0.0-3.0-1.50","29","4","
    <div class = 'grid-container'>
        <div class='header-text'> Friends </div>
        <div>
            Serenity
            <img width='150' style='border:2px black solid;' src='stims/img/CFD-BF-235-168-N.jpg'>
        </div>
        <div> &nbsp; + &nbsp; </div>
        <div>
            Vincent
            <img width='150' style='border:2px black solid;' src='stims/img/CFD-AM-238-269-N.jpg'>
        </div>
        <div class='header-text'> &nbsp; </div>
    </div>
    ","null","2","false","8","stims/img/CFD-AM-238-269-N.jpg","Vincent","9","stims/img/CFD-BF-235-168-N.jpg","Serenity","","",""
"","1902","break","html-keyboard-response","107","875984","0.0-3.0-2.50-0.50","29","4","If you'd like to take a break before continuing, 
    please do so now. <p>To continue, please press the spacebar.</p>"," ","","","","","","","","","","",""
"","null","fixation","html-keyboard-response","108","876490","0.0-3.0-0.51","29","4","<div style = ""font-size:60px;""> + </div>","null","","","","","","","","","","",""
"","null","learning_trial","html-keyboard-response","109","878998","0.0-3.0-1.51","29","4","
    <div class = 'grid-container'>
        <div class='header-text'> Friends </div>
        <div>
            Alexander
            <img width='150' style='border:2px black solid;' src='stims/img/CFD-WM-218-074-N.jpg'>
        </div>
        <div> &nbsp; + &nbsp; </div>
        <div>
            Miriam
            <img width='150' style='border:2px black solid;' src='stims/img/CFD-WF-252-159-N.jpg'>
        </div>
        <div class='header-text'> &nbsp; </div>
    </div>
    ","null","3","true","3","stims/img/CFD-WM-218-074-N.jpg","Alexander","4","stims/img/CFD-WF-252-159-N.jpg","Miriam","","",""
"","null","fixation","html-keyboard-response","110","879504","0.0-3.0-0.52","29","4","<div style = ""font-size:60px;""> + </div>","null","","","","","","","","","","",""
"","null","learning_trial","html-keyboard-response","111","882011","0.0-3.0-1.52","29","4","
    <div class = 'grid-container'>
        <div class='header-text'> Friends </div>
        <div>
            Miriam
            <img width='150' style='border:2px black solid;' src='stims/img/CFD-WF-252-159-N.jpg'>
        </div>
        <div> &nbsp; + &nbsp; </div>
        <div>
            Emma
            <img width='150' style='border:2px black solid;' src='stims/img/CFD-AF-217-155-N.jpg'>
        </div>
        <div class='header-text'> &nbsp; </div>
    </div>
    ","null","3","true","4","stims/img/CFD-WF-252-159-N.jpg","Miriam","6","stims/img/CFD-AF-217-155-N.jpg","Emma","","",""
"","null","fixation","html-keyboard-response","112","882517","0.0-3.0-0.53","29","4","<div style = ""font-size:60px;""> + </div>","null","","","","","","","","","","",""
"","null","learning_trial","html-keyboard-response","113","885024","0.0-3.0-1.53","29","4","
    <div class = 'grid-container'>
        <div class='header-text'> Friends </div>
        <div>
            Alvin
            <img width='150' style='border:2px black solid;' src='stims/img/CFD-AM-207-108-N.jpg'>
        </div>
        <div> &nbsp; + &nbsp; </div>
        <div>
            Miriam
            <img width='150' style='border:2px black solid;' src='stims/img/CFD-WF-252-159-N.jpg'>
        </div>
        <div class='header-text'> &nbsp; </div>
    </div>
    ","null","3","false","4","stims/img/CFD-WF-252-159-N.jpg","Miriam","5","stims/img/CFD-AM-207-108-N.jpg","Alvin","","",""
"","null","fixation","html-keyboard-response","114","885530","0.0-3.0-0.54","29","4","<div style = ""font-size:60px;""> + </div>","null","","","","","","","","","","",""
"","null","learning_trial","html-keyboard-response","115","888037","0.0-3.0-1.54","29","4","
    <div class = 'grid-container'>
        <div class='header-text'> Friends </div>
        <div>
            Alvin
            <img width='150' style='border:2px black solid;' src='stims/img/CFD-AM-207-108-N.jpg'>
        </div>
        <div> &nbsp; + &nbsp; </div>
        <div>
            Nevaeh
            <img width='150' style='border:2px black solid;' src='stims/img/CFD-BF-232-187-N.jpg'>
        </div>
        <div class='header-text'> &nbsp; </div>
    </div>
    ","null","3","true","5","stims/img/CFD-AM-207-108-N.jpg","Alvin","7","stims/img/CFD-BF-232-187-N.jpg","Nevaeh","","",""
"","null","fixation","html-keyboard-response","116","888543","0.0-3.0-0.55","29","4","<div style = ""font-size:60px;""> + </div>","null","","","","","","","","","","",""
"","null","learning_trial","html-keyboard-response","117","891045","0.0-3.0-1.55","29","4","
    <div class = 'grid-container'>
        <div class='header-text'> Friends </div>
        <div>
            David
            <img width='150' style='border:2px black solid;' src='stims/img/CFD-LM-216-082-N.jpg'>
        </div>
        <div> &nbsp; + &nbsp; </div>
        <div>
            Serenity
            <img width='150' style='border:2px black solid;' src='stims/img/CFD-BF-235-168-N.jpg'>
        </div>
        <div class='header-text'> &nbsp; </div>
    </div>
    ","null","3","false","9","stims/img/CFD-BF-235-168-N.jpg","Serenity","11","stims/img/CFD-LM-216-082-N.jpg","David","","",""
"","null","fixation","html-keyboard-response","118","891551","0.0-3.0-0.56","29","4","<div style = ""font-size:60px;""> + </div>","null","","","","","","","","","","",""
"","null","learning_trial","html-keyboard-response","119","894058","0.0-3.0-1.56","29","4","
    <div class = 'grid-container'>
        <div class='header-text'> Friends </div>
        <div>
            Alvin
            <img width='150' style='border:2px black solid;' src='stims/img/CFD-AM-207-108-N.jpg'>
        </div>
        <div> &nbsp; + &nbsp; </div>
        <div>
            Alexander
            <img width='150' style='border:2px black solid;' src='stims/img/CFD-WM-218-074-N.jpg'>
        </div>
        <div class='header-text'> &nbsp; </div>
    </div>
    ","null","3","false","3","stims/img/CFD-WM-218-074-N.jpg","Alexander","5","stims/img/CFD-AM-207-108-N.jpg","Alvin","","",""
"","null","fixation","html-keyboard-response","120","894564","0.0-3.0-0.57","29","4","<div style = ""font-size:60px;""> + </div>","null","","","","","","","","","","",""
"","null","learning_trial","html-keyboard-response","121","897071","0.0-3.0-1.57","29","4","
    <div class = 'grid-container'>
        <div class='header-text'> Friends </div>
        <div>
            Alexander
            <img width='150' style='border:2px black solid;' src='stims/img/CFD-WM-218-074-N.jpg'>
        </div>
        <div> &nbsp; + &nbsp; </div>
        <div>
            Victoria
            <img width='150' style='border:2px black solid;' src='stims/img/CFD-WF-232-161-N.jpg'>
        </div>
        <div class='header-text'> &nbsp; </div>
    </div>
    ","null","3","false","2","stims/img/CFD-WF-232-161-N.jpg","Victoria","3","stims/img/CFD-WM-218-074-N.jpg","Alexander","","",""
"","null","fixation","html-keyboard-response","122","897578","0.0-3.0-0.58","29","4","<div style = ""font-size:60px;""> + </div>","null","","","","","","","","","","",""
"","null","learning_trial","html-keyboard-response","123","900085","0.0-3.0-1.58","29","4","
    <div class = 'grid-container'>
        <div class='header-text'> Friends </div>
        <div>
            Vincent
            <img width='150' style='border:2px black solid;' src='stims/img/CFD-AM-238-269-N.jpg'>
        </div>
        <div> &nbsp; + &nbsp; </div>
        <div>
            Mason
            <img width='150' style='border:2px black solid;' src='stims/img/CFD-BM-226-276-N.jpg'>
        </div>
        <div class='header-text'> &nbsp; </div>
    </div>
    ","null","3","false","1","stims/img/CFD-BM-226-276-N.jpg","Mason","8","stims/img/CFD-AM-238-269-N.jpg","Vincent","","",""
"","null","fixation","html-keyboard-response","124","900591","0.0-3.0-0.59","29","4","<div style = ""font-size:60px;""> + </div>","null","","","","","","","","","","",""
"","null","learning_trial","html-keyboard-response","125","903099","0.0-3.0-1.59","29","4","
    <div class = 'grid-container'>
        <div class='header-text'> Friends </div>
        <div>
            David
            <img width='150' style='border:2px black solid;' src='stims/img/CFD-LM-216-082-N.jpg'>
        </div>
        <div> &nbsp; + &nbsp; </div>
        <div>
            Amari
            <img width='150' style='border:2px black solid;' src='stims/img/CFD-BM-237-188-N.jpg'>
        </div>
        <div class='header-text'> &nbsp; </div>
    </div>
    ","null","3","true","11","stims/img/CFD-LM-216-082-N.jpg","David","13","stims/img/CFD-BM-237-188-N.jpg","Amari","","",""
"","null","fixation","html-keyboard-response","126","903605","0.0-3.0-0.60","29","4","<div style = ""font-size:60px;""> + </div>","null","","","","","","","","","","",""
"","null","learning_trial","html-keyboard-response","127","906112","0.0-3.0-1.60","29","4","
    <div class = 'grid-container'>
        <div class='header-text'> Friends </div>
        <div>
            Isabella
            <img width='150' style='border:2px black solid;' src='stims/img/CFD-AF-239-171-N.jpg'>
        </div>
        <div> &nbsp; + &nbsp; </div>
        <div>
            David
            <img width='150' style='border:2px black solid;' src='stims/img/CFD-LM-216-082-N.jpg'>
        </div>
        <div class='header-text'> &nbsp; </div>
    </div>
    ","null","3","false","11","stims/img/CFD-LM-216-082-N.jpg","David","12","stims/img/CFD-AF-239-171-N.jpg","Isabella","","",""
"","null","fixation","html-keyboard-response","128","906618","0.0-3.0-0.61","29","4","<div style = ""font-size:60px;""> + </div>","null","","","","","","","","","","",""
"","null","learning_trial","html-keyboard-response","129","909125","0.0-3.0-1.61","29","4","
    <div class = 'grid-container'>
        <div class='header-text'> Friends </div>
        <div>
            Vincent
            <img width='150' style='border:2px black solid;' src='stims/img/CFD-AM-238-269-N.jpg'>
        </div>
        <div> &nbsp; + &nbsp; </div>
        <div>
            Serenity
            <img width='150' style='border:2px black solid;' src='stims/img/CFD-BF-235-168-N.jpg'>
        </div>
        <div class='header-text'> &nbsp; </div>
    </div>
    ","null","3","true","8","stims/img/CFD-AM-238-269-N.jpg","Vincent","9","stims/img/CFD-BF-235-168-N.jpg","Serenity","","",""
"","null","fixation","html-keyboard-response","130","909631","0.0-3.0-0.62","29","4","<div style = ""font-size:60px;""> + </div>","null","","","","","","","","","","",""
"","null","learning_trial","html-keyboard-response","131","912139","0.0-3.0-1.62","29","4","
    <div class = 'grid-container'>
        <div class='header-text'> Friends </div>
        <div>
            Amy
            <img width='150' style='border:2px black solid;' src='stims/img/CFD-LF-252-172-N.jpg'>
        </div>
        <div> &nbsp; + &nbsp; </div>
        <div>
            Isabella
            <img width='150' style='border:2px black solid;' src='stims/img/CFD-AF-239-171-N.jpg'>
        </div>
        <div class='header-text'> &nbsp; </div>
    </div>
    ","null","3","true","10","stims/img/CFD-LF-252-172-N.jpg","Amy","12","stims/img/CFD-AF-239-171-N.jpg","Isabella","","",""
"","null","fixation","html-keyboard-response","132","912644","0.0-3.0-0.63","29","4","<div style = ""font-size:60px;""> + </div>","null","","","","","","","","","","",""
"","null","learning_trial","html-keyboard-response","133","915150","0.0-3.0-1.63","29","4","
    <div class = 'grid-container'>
        <div class='header-text'> Friends </div>
        <div>
            Isabella
            <img width='150' style='border:2px black solid;' src='stims/img/CFD-AF-239-171-N.jpg'>
        </div>
        <div> &nbsp; + &nbsp; </div>
        <div>
            Amari
            <img width='150' style='border:2px black solid;' src='stims/img/CFD-BM-237-188-N.jpg'>
        </div>
        <div class='header-text'> &nbsp; </div>
    </div>
    ","null","3","true","12","stims/img/CFD-AF-239-171-N.jpg","Isabella","13","stims/img/CFD-BM-237-188-N.jpg","Amari","","",""
"","null","fixation","html-keyboard-response","134","915656","0.0-3.0-0.64","29","4","<div style = ""font-size:60px;""> + </div>","null","","","","","","","","","","",""
"","null","learning_trial","html-keyboard-response","135","918162","0.0-3.0-1.64","29","4","
    <div class = 'grid-container'>
        <div class='header-text'> Friends </div>
        <div>
            Nevaeh
            <img width='150' style='border:2px black solid;' src='stims/img/CFD-BF-232-187-N.jpg'>
        </div>
        <div> &nbsp; + &nbsp; </div>
        <div>
            Emma
            <img width='150' style='border:2px black solid;' src='stims/img/CFD-AF-217-155-N.jpg'>
        </div>
        <div class='header-text'> &nbsp; </div>
    </div>
    ","null","3","false","6","stims/img/CFD-AF-217-155-N.jpg","Emma","7","stims/img/CFD-BF-232-187-N.jpg","Nevaeh","","",""
"","null","fixation","html-keyboard-response","136","918668","0.0-3.0-0.65","29","4","<div style = ""font-size:60px;""> + </div>","null","","","","","","","","","","",""
"","null","learning_trial","html-keyboard-response","137","921176","0.0-3.0-1.65","29","4","
    <div class = 'grid-container'>
        <div class='header-text'> Friends </div>
        <div>
            Victoria
            <img width='150' style='border:2px black solid;' src='stims/img/CFD-WF-232-161-N.jpg'>
        </div>
        <div> &nbsp; + &nbsp; </div>
        <div>
            Mason
            <img width='150' style='border:2px black solid;' src='stims/img/CFD-BM-226-276-N.jpg'>
        </div>
        <div class='header-text'> &nbsp; </div>
    </div>
    ","null","3","false","1","stims/img/CFD-BM-226-276-N.jpg","Mason","2","stims/img/CFD-WF-232-161-N.jpg","Victoria","","",""
"","null","fixation","html-keyboard-response","138","921679","0.0-3.0-0.66","29","4","<div style = ""font-size:60px;""> + </div>","null","","","","","","","","","","",""
"","null","learning_trial","html-keyboard-response","139","924186","0.0-3.0-1.66","29","4","
    <div class = 'grid-container'>
        <div class='header-text'> Friends </div>
        <div>
            Amy
            <img width='150' style='border:2px black solid;' src='stims/img/CFD-LF-252-172-N.jpg'>
        </div>
        <div> &nbsp; + &nbsp; </div>
        <div>
            Vincent
            <img width='150' style='border:2px black solid;' src='stims/img/CFD-AM-238-269-N.jpg'>
        </div>
        <div class='header-text'> &nbsp; </div>
    </div>
    ","null","3","false","8","stims/img/CFD-AM-238-269-N.jpg","Vincent","10","stims/img/CFD-LF-252-172-N.jpg","Amy","","",""
"","null","fixation","html-keyboard-response","140","924692","0.0-3.0-0.67","29","4","<div style = ""font-size:60px;""> + </div>","null","","","","","","","","","","",""
"","null","learning_trial","html-keyboard-response","141","927200","0.0-3.0-1.67","29","4","
    <div class = 'grid-container'>
        <div class='header-text'> Friends </div>
        <div>
            Miriam
            <img width='150' style='border:2px black solid;' src='stims/img/CFD-WF-252-159-N.jpg'>
        </div>
        <div> &nbsp; + &nbsp; </div>
        <div>
            Victoria
            <img width='150' style='border:2px black solid;' src='stims/img/CFD-WF-232-161-N.jpg'>
        </div>
        <div class='header-text'> &nbsp; </div>
    </div>
    ","null","3","false","2","stims/img/CFD-WF-232-161-N.jpg","Victoria","4","stims/img/CFD-WF-252-159-N.jpg","Miriam","","",""
"","1576","break","html-keyboard-response","142","928777","0.0-3.0-2.67-0.67","29","4","If you'd like to take a break before continuing, 
    please do so now. <p>To continue, please press the spacebar.</p>"," ","","","","","","","","","","",""
"","null","fixation","html-keyboard-response","143","929283","0.0-3.0-0.68","29","4","<div style = ""font-size:60px;""> + </div>","null","","","","","","","","","","",""
"","null","learning_trial","html-keyboard-response","144","931790","0.0-3.0-1.68","29","4","
    <div class = 'grid-container'>
        <div class='header-text'> Friends </div>
        <div>
            Serenity
            <img width='150' style='border:2px black solid;' src='stims/img/CFD-BF-235-168-N.jpg'>
        </div>
        <div> &nbsp; + &nbsp; </div>
        <div>
            Vincent
            <img width='150' style='border:2px black solid;' src='stims/img/CFD-AM-238-269-N.jpg'>
        </div>
        <div class='header-text'> &nbsp; </div>
    </div>
    ","null","4","false","8","stims/img/CFD-AM-238-269-N.jpg","Vincent","9","stims/img/CFD-BF-235-168-N.jpg","Serenity","","",""
"","null","fixation","html-keyboard-response","145","932296","0.0-3.0-0.69","29","4","<div style = ""font-size:60px;""> + </div>","null","","","","","","","","","","",""
"","null","learning_trial","html-keyboard-response","146","934800","0.0-3.0-1.69","29","4","
    <div class = 'grid-container'>
        <div class='header-text'> Friends </div>
        <div>
            Vincent
            <img width='150' style='border:2px black solid;' src='stims/img/CFD-AM-238-269-N.jpg'>
        </div>
        <div> &nbsp; + &nbsp; </div>
        <div>
            Amy
            <img width='150' style='border:2px black solid;' src='stims/img/CFD-LF-252-172-N.jpg'>
        </div>
        <div class='header-text'> &nbsp; </div>
    </div>
    ","null","4","true","8","stims/img/CFD-AM-238-269-N.jpg","Vincent","10","stims/img/CFD-LF-252-172-N.jpg","Amy","","",""
"","null","fixation","html-keyboard-response","147","935306","0.0-3.0-0.70","29","4","<div style = ""font-size:60px;""> + </div>","null","","","","","","","","","","",""
"","null","learning_trial","html-keyboard-response","148","937813","0.0-3.0-1.70","29","4","
    <div class = 'grid-container'>
        <div class='header-text'> Friends </div>
        <div>
            David
            <img width='150' style='border:2px black solid;' src='stims/img/CFD-LM-216-082-N.jpg'>
        </div>
        <div> &nbsp; + &nbsp; </div>
        <div>
            Isabella
            <img width='150' style='border:2px black solid;' src='stims/img/CFD-AF-239-171-N.jpg'>
        </div>
        <div class='header-text'> &nbsp; </div>
    </div>
    ","null","4","true","11","stims/img/CFD-LM-216-082-N.jpg","David","12","stims/img/CFD-AF-239-171-N.jpg","Isabella","","",""
"","null","fixation","html-keyboard-response","149","938319","0.0-3.0-0.71","29","4","<div style = ""font-size:60px;""> + </div>","null","","","","","","","","","","",""
"","null","learning_trial","html-keyboard-response","150","940826","0.0-3.0-1.71","29","4","
    <div class = 'grid-container'>
        <div class='header-text'> Friends </div>
        <div>
            Nevaeh
            <img width='150' style='border:2px black solid;' src='stims/img/CFD-BF-232-187-N.jpg'>
        </div>
        <div> &nbsp; + &nbsp; </div>
        <div>
            Alvin
            <img width='150' style='border:2px black solid;' src='stims/img/CFD-AM-207-108-N.jpg'>
        </div>
        <div class='header-text'> &nbsp; </div>
    </div>
    ","null","4","false","5","stims/img/CFD-AM-207-108-N.jpg","Alvin","7","stims/img/CFD-BF-232-187-N.jpg","Nevaeh","","",""
"","null","fixation","html-keyboard-response","151","941327","0.0-3.0-0.72","29","4","<div style = ""font-size:60px;""> + </div>","null","","","","","","","","","","",""
"","null","learning_trial","html-keyboard-response","152","943834","0.0-3.0-1.72","29","4","
    <div class = 'grid-container'>
        <div class='header-text'> Friends </div>
        <div>
            David
            <img width='150' style='border:2px black solid;' src='stims/img/CFD-LM-216-082-N.jpg'>
        </div>
        <div> &nbsp; + &nbsp; </div>
        <div>
            Serenity
            <img width='150' style='border:2px black solid;' src='stims/img/CFD-BF-235-168-N.jpg'>
        </div>
        <div class='header-text'> &nbsp; </div>
    </div>
    ","null","4","false","9","stims/img/CFD-BF-235-168-N.jpg","Serenity","11","stims/img/CFD-LM-216-082-N.jpg","David","","",""
"","null","fixation","html-keyboard-response","153","944340","0.0-3.0-0.73","29","4","<div style = ""font-size:60px;""> + </div>","null","","","","","","","","","","",""
"","null","learning_trial","html-keyboard-response","154","946848","0.0-3.0-1.73","29","4","
    <div class = 'grid-container'>
        <div class='header-text'> Friends </div>
        <div>
            Alvin
            <img width='150' style='border:2px black solid;' src='stims/img/CFD-AM-207-108-N.jpg'>
        </div>
        <div> &nbsp; + &nbsp; </div>
        <div>
            Alexander
            <img width='150' style='border:2px black solid;' src='stims/img/CFD-WM-218-074-N.jpg'>
        </div>
        <div class='header-text'> &nbsp; </div>
    </div>
    ","null","4","false","3","stims/img/CFD-WM-218-074-N.jpg","Alexander","5","stims/img/CFD-AM-207-108-N.jpg","Alvin","","",""
"","null","fixation","html-keyboard-response","155","947354","0.0-3.0-0.74","29","4","<div style = ""font-size:60px;""> + </div>","null","","","","","","","","","","",""
"","null","learning_trial","html-keyboard-response","156","949861","0.0-3.0-1.74","29","4","
    <div class = 'grid-container'>
        <div class='header-text'> Friends </div>
        <div>
            Mason
            <img width='150' style='border:2px black solid;' src='stims/img/CFD-BM-226-276-N.jpg'>
        </div>
        <div> &nbsp; + &nbsp; </div>
        <div>
            Victoria
            <img width='150' style='border:2px black solid;' src='stims/img/CFD-WF-232-161-N.jpg'>
        </div>
        <div class='header-text'> &nbsp; </div>
    </div>
    ","null","4","true","1","stims/img/CFD-BM-226-276-N.jpg","Mason","2","stims/img/CFD-WF-232-161-N.jpg","Victoria","","",""
"","null","fixation","html-keyboard-response","157","950362","0.0-3.0-0.75","29","4","<div style = ""font-size:60px;""> + </div>","null","","","","","","","","","","",""
"","null","learning_trial","html-keyboard-response","158","952868","0.0-3.0-1.75","29","4","
    <div class = 'grid-container'>
        <div class='header-text'> Friends </div>
        <div>
            Vincent
            <img width='150' style='border:2px black solid;' src='stims/img/CFD-AM-238-269-N.jpg'>
        </div>
        <div> &nbsp; + &nbsp; </div>
        <div>
            Mason
            <img width='150' style='border:2px black solid;' src='stims/img/CFD-BM-226-276-N.jpg'>
        </div>
        <div class='header-text'> &nbsp; </div>
    </div>
    ","null","4","false","1","stims/img/CFD-BM-226-276-N.jpg","Mason","8","stims/img/CFD-AM-238-269-N.jpg","Vincent","","",""
"","null","fixation","html-keyboard-response","159","953375","0.0-3.0-0.76","29","4","<div style = ""font-size:60px;""> + </div>","null","","","","","","","","","","",""
"","null","learning_trial","html-keyboard-response","160","955881","0.0-3.0-1.76","29","4","
    <div class = 'grid-container'>
        <div class='header-text'> Friends </div>
        <div>
            Victoria
            <img width='150' style='border:2px black solid;' src='stims/img/CFD-WF-232-161-N.jpg'>
        </div>
        <div> &nbsp; + &nbsp; </div>
        <div>
            Alexander
            <img width='150' style='border:2px black solid;' src='stims/img/CFD-WM-218-074-N.jpg'>
        </div>
        <div class='header-text'> &nbsp; </div>
    </div>
    ","null","4","true","2","stims/img/CFD-WF-232-161-N.jpg","Victoria","3","stims/img/CFD-WM-218-074-N.jpg","Alexander","","",""
"","null","fixation","html-keyboard-response","161","956388","0.0-3.0-0.77","29","4","<div style = ""font-size:60px;""> + </div>","null","","","","","","","","","","",""
"","null","learning_trial","html-keyboard-response","162","958891","0.0-3.0-1.77","29","4","
    <div class = 'grid-container'>
        <div class='header-text'> Friends </div>
        <div>
            Miriam
            <img width='150' style='border:2px black solid;' src='stims/img/CFD-WF-252-159-N.jpg'>
        </div>
        <div> &nbsp; + &nbsp; </div>
        <div>
            Alvin
            <img width='150' style='border:2px black solid;' src='stims/img/CFD-AM-207-108-N.jpg'>
        </div>
        <div class='header-text'> &nbsp; </div>
    </div>
    ","null","4","true","4","stims/img/CFD-WF-252-159-N.jpg","Miriam","5","stims/img/CFD-AM-207-108-N.jpg","Alvin","","",""
"","null","fixation","html-keyboard-response","163","959396","0.0-3.0-0.78","29","4","<div style = ""font-size:60px;""> + </div>","null","","","","","","","","","","",""
"","null","learning_trial","html-keyboard-response","164","961904","0.0-3.0-1.78","29","4","
    <div class = 'grid-container'>
        <div class='header-text'> Friends </div>
        <div>
            Amari
            <img width='150' style='border:2px black solid;' src='stims/img/CFD-BM-237-188-N.jpg'>
        </div>
        <div> &nbsp; + &nbsp; </div>
        <div>
            David
            <img width='150' style='border:2px black solid;' src='stims/img/CFD-LM-216-082-N.jpg'>
        </div>
        <div class='header-text'> &nbsp; </div>
    </div>
    ","null","4","false","11","stims/img/CFD-LM-216-082-N.jpg","David","13","stims/img/CFD-BM-237-188-N.jpg","Amari","","",""
"","null","fixation","html-keyboard-response","165","962411","0.0-3.0-0.79","29","4","<div style = ""font-size:60px;""> + </div>","null","","","","","","","","","","",""
"","null","learning_trial","html-keyboard-response","166","964917","0.0-3.0-1.79","29","4","
    <div class = 'grid-container'>
        <div class='header-text'> Friends </div>
        <div>
            Emma
            <img width='150' style='border:2px black solid;' src='stims/img/CFD-AF-217-155-N.jpg'>
        </div>
        <div> &nbsp; + &nbsp; </div>
        <div>
            Nevaeh
            <img width='150' style='border:2px black solid;' src='stims/img/CFD-BF-232-187-N.jpg'>
        </div>
        <div class='header-text'> &nbsp; </div>
    </div>
    ","null","4","true","6","stims/img/CFD-AF-217-155-N.jpg","Emma","7","stims/img/CFD-BF-232-187-N.jpg","Nevaeh","","",""
"","null","fixation","html-keyboard-response","167","965423","0.0-3.0-0.80","29","4","<div style = ""font-size:60px;""> + </div>","null","","","","","","","","","","",""
"","null","learning_trial","html-keyboard-response","168","967930","0.0-3.0-1.80","29","4","
    <div class = 'grid-container'>
        <div class='header-text'> Friends </div>
        <div>
            Amari
            <img width='150' style='border:2px black solid;' src='stims/img/CFD-BM-237-188-N.jpg'>
        </div>
        <div> &nbsp; + &nbsp; </div>
        <div>
            Isabella
            <img width='150' style='border:2px black solid;' src='stims/img/CFD-AF-239-171-N.jpg'>
        </div>
        <div class='header-text'> &nbsp; </div>
    </div>
    ","null","4","false","12","stims/img/CFD-AF-239-171-N.jpg","Isabella","13","stims/img/CFD-BM-237-188-N.jpg","Amari","","",""
"","null","fixation","html-keyboard-response","169","968437","0.0-3.0-0.81","29","4","<div style = ""font-size:60px;""> + </div>","null","","","","","","","","","","",""
"","null","learning_trial","html-keyboard-response","170","970944","0.0-3.0-1.81","29","4","
    <div class = 'grid-container'>
        <div class='header-text'> Friends </div>
        <div>
            Alexander
            <img width='150' style='border:2px black solid;' src='stims/img/CFD-WM-218-074-N.jpg'>
        </div>
        <div> &nbsp; + &nbsp; </div>
        <div>
            Miriam
            <img width='150' style='border:2px black solid;' src='stims/img/CFD-WF-252-159-N.jpg'>
        </div>
        <div class='header-text'> &nbsp; </div>
    </div>
    ","null","4","true","3","stims/img/CFD-WM-218-074-N.jpg","Alexander","4","stims/img/CFD-WF-252-159-N.jpg","Miriam","","",""
"","null","fixation","html-keyboard-response","171","971449","0.0-3.0-0.82","29","4","<div style = ""font-size:60px;""> + </div>","null","","","","","","","","","","",""
"","null","learning_trial","html-keyboard-response","172","973957","0.0-3.0-1.82","29","4","
    <div class = 'grid-container'>
        <div class='header-text'> Friends </div>
        <div>
            Amy
            <img width='150' style='border:2px black solid;' src='stims/img/CFD-LF-252-172-N.jpg'>
        </div>
        <div> &nbsp; + &nbsp; </div>
        <div>
            Isabella
            <img width='150' style='border:2px black solid;' src='stims/img/CFD-AF-239-171-N.jpg'>
        </div>
        <div class='header-text'> &nbsp; </div>
    </div>
    ","null","4","true","10","stims/img/CFD-LF-252-172-N.jpg","Amy","12","stims/img/CFD-AF-239-171-N.jpg","Isabella","","",""
"","null","fixation","html-keyboard-response","173","974463","0.0-3.0-0.83","29","4","<div style = ""font-size:60px;""> + </div>","null","","","","","","","","","","",""
"","null","learning_trial","html-keyboard-response","174","976970","0.0-3.0-1.83","29","4","
    <div class = 'grid-container'>
        <div class='header-text'> Friends </div>
        <div>
            Miriam
            <img width='150' style='border:2px black solid;' src='stims/img/CFD-WF-252-159-N.jpg'>
        </div>
        <div> &nbsp; + &nbsp; </div>
        <div>
            Victoria
            <img width='150' style='border:2px black solid;' src='stims/img/CFD-WF-232-161-N.jpg'>
        </div>
        <div class='header-text'> &nbsp; </div>
    </div>
    ","null","4","false","2","stims/img/CFD-WF-232-161-N.jpg","Victoria","4","stims/img/CFD-WF-252-159-N.jpg","Miriam","","",""
"","null","fixation","html-keyboard-response","175","977476","0.0-3.0-0.84","29","4","<div style = ""font-size:60px;""> + </div>","null","","","","","","","","","","",""
"","null","learning_trial","html-keyboard-response","176","979983","0.0-3.0-1.84","29","4","
    <div class = 'grid-container'>
        <div class='header-text'> Friends </div>
        <div>
            Emma
            <img width='150' style='border:2px black solid;' src='stims/img/CFD-AF-217-155-N.jpg'>
        </div>
        <div> &nbsp; + &nbsp; </div>
        <div>
            Miriam
            <img width='150' style='border:2px black solid;' src='stims/img/CFD-WF-252-159-N.jpg'>
        </div>
        <div class='header-text'> &nbsp; </div>
    </div>
    ","null","4","false","4","stims/img/CFD-WF-252-159-N.jpg","Miriam","6","stims/img/CFD-AF-217-155-N.jpg","Emma","","",""
"","1452","break","html-keyboard-response","177","981437","0.0-3.0-2.84-0.84","29","4","If you'd like to take a break before continuing, 
    please do so now. <p>To continue, please press the spacebar.</p>"," ","","","","","","","","","","",""
"","null","fixation","html-keyboard-response","178","981942","0.0-3.0-0.85","29","4","<div style = ""font-size:60px;""> + </div>","null","","","","","","","","","","",""
"","null","learning_trial","html-keyboard-response","179","984448","0.0-3.0-1.85","29","4","
    <div class = 'grid-container'>
        <div class='header-text'> Friends </div>
        <div>
            Miriam
            <img width='150' style='border:2px black solid;' src='stims/img/CFD-WF-252-159-N.jpg'>
        </div>
        <div> &nbsp; + &nbsp; </div>
        <div>
            Alvin
            <img width='150' style='border:2px black solid;' src='stims/img/CFD-AM-207-108-N.jpg'>
        </div>
        <div class='header-text'> &nbsp; </div>
    </div>
    ","null","5","true","4","stims/img/CFD-WF-252-159-N.jpg","Miriam","5","stims/img/CFD-AM-207-108-N.jpg","Alvin","","",""
"","null","fixation","html-keyboard-response","180","984956","0.0-3.0-0.86","29","4","<div style = ""font-size:60px;""> + </div>","null","","","","","","","","","","",""
"","null","learning_trial","html-keyboard-response","181","987463","0.0-3.0-1.86","29","4","
    <div class = 'grid-container'>
        <div class='header-text'> Friends </div>
        <div>
            Amy
            <img width='150' style='border:2px black solid;' src='stims/img/CFD-LF-252-172-N.jpg'>
        </div>
        <div> &nbsp; + &nbsp; </div>
        <div>
            Vincent
            <img width='150' style='border:2px black solid;' src='stims/img/CFD-AM-238-269-N.jpg'>
        </div>
        <div class='header-text'> &nbsp; </div>
    </div>
    ","null","5","false","8","stims/img/CFD-AM-238-269-N.jpg","Vincent","10","stims/img/CFD-LF-252-172-N.jpg","Amy","","",""
"","null","fixation","html-keyboard-response","182","987969","0.0-3.0-0.87","29","4","<div style = ""font-size:60px;""> + </div>","null","","","","","","","","","","",""
"","null","learning_trial","html-keyboard-response","183","990476","0.0-3.0-1.87","29","4","
    <div class = 'grid-container'>
        <div class='header-text'> Friends </div>
        <div>
            Mason
            <img width='150' style='border:2px black solid;' src='stims/img/CFD-BM-226-276-N.jpg'>
        </div>
        <div> &nbsp; + &nbsp; </div>
        <div>
            Victoria
            <img width='150' style='border:2px black solid;' src='stims/img/CFD-WF-232-161-N.jpg'>
        </div>
        <div class='header-text'> &nbsp; </div>
    </div>
    ","null","5","true","1","stims/img/CFD-BM-226-276-N.jpg","Mason","2","stims/img/CFD-WF-232-161-N.jpg","Victoria","","",""
"","null","fixation","html-keyboard-response","184","990982","0.0-3.0-0.88","29","4","<div style = ""font-size:60px;""> + </div>","null","","","","","","","","","","",""
"","null","learning_trial","html-keyboard-response","185","993489","0.0-3.0-1.88","29","4","
    <div class = 'grid-container'>
        <div class='header-text'> Friends </div>
        <div>
            Vincent
            <img width='150' style='border:2px black solid;' src='stims/img/CFD-AM-238-269-N.jpg'>
        </div>
        <div> &nbsp; + &nbsp; </div>
        <div>
            Mason
            <img width='150' style='border:2px black solid;' src='stims/img/CFD-BM-226-276-N.jpg'>
        </div>
        <div class='header-text'> &nbsp; </div>
    </div>
    ","null","5","false","1","stims/img/CFD-BM-226-276-N.jpg","Mason","8","stims/img/CFD-AM-238-269-N.jpg","Vincent","","",""
"","null","fixation","html-keyboard-response","186","993996","0.0-3.0-0.89","29","4","<div style = ""font-size:60px;""> + </div>","null","","","","","","","","","","",""
"","null","learning_trial","html-keyboard-response","187","996503","0.0-3.0-1.89","29","4","
    <div class = 'grid-container'>
        <div class='header-text'> Friends </div>
        <div>
            Vincent
            <img width='150' style='border:2px black solid;' src='stims/img/CFD-AM-238-269-N.jpg'>
        </div>
        <div> &nbsp; + &nbsp; </div>
        <div>
            Serenity
            <img width='150' style='border:2px black solid;' src='stims/img/CFD-BF-235-168-N.jpg'>
        </div>
        <div class='header-text'> &nbsp; </div>
    </div>
    ","null","5","true","8","stims/img/CFD-AM-238-269-N.jpg","Vincent","9","stims/img/CFD-BF-235-168-N.jpg","Serenity","","",""
"","null","fixation","html-keyboard-response","188","997009","0.0-3.0-0.90","29","4","<div style = ""font-size:60px;""> + </div>","null","","","","","","","","","","",""
"","null","learning_trial","html-keyboard-response","189","999516","0.0-3.0-1.90","29","4","
    <div class = 'grid-container'>
        <div class='header-text'> Friends </div>
        <div>
            Miriam
            <img width='150' style='border:2px black solid;' src='stims/img/CFD-WF-252-159-N.jpg'>
        </div>
        <div> &nbsp; + &nbsp; </div>
        <div>
            Emma
            <img width='150' style='border:2px black solid;' src='stims/img/CFD-AF-217-155-N.jpg'>
        </div>
        <div class='header-text'> &nbsp; </div>
    </div>
    ","null","5","true","4","stims/img/CFD-WF-252-159-N.jpg","Miriam","6","stims/img/CFD-AF-217-155-N.jpg","Emma","","",""
"","null","fixation","html-keyboard-response","190","1000023","0.0-3.0-0.91","29","4","<div style = ""font-size:60px;""> + </div>","null","","","","","","","","","","",""
"","null","learning_trial","html-keyboard-response","191","1002529","0.0-3.0-1.91","29","4","
    <div class = 'grid-container'>
        <div class='header-text'> Friends </div>
        <div>
            Alexander
            <img width='150' style='border:2px black solid;' src='stims/img/CFD-WM-218-074-N.jpg'>
        </div>
        <div> &nbsp; + &nbsp; </div>
        <div>
            Victoria
            <img width='150' style='border:2px black solid;' src='stims/img/CFD-WF-232-161-N.jpg'>
        </div>
        <div class='header-text'> &nbsp; </div>
    </div>
    ","null","5","false","2","stims/img/CFD-WF-232-161-N.jpg","Victoria","3","stims/img/CFD-WM-218-074-N.jpg","Alexander","","",""
"","null","fixation","html-keyboard-response","192","1003036","0.0-3.0-0.92","29","4","<div style = ""font-size:60px;""> + </div>","null","","","","","","","","","","",""
"","null","learning_trial","html-keyboard-response","193","1005543","0.0-3.0-1.92","29","4","
    <div class = 'grid-container'>
        <div class='header-text'> Friends </div>
        <div>
            Isabella
            <img width='150' style='border:2px black solid;' src='stims/img/CFD-AF-239-171-N.jpg'>
        </div>
        <div> &nbsp; + &nbsp; </div>
        <div>
            Amy
            <img width='150' style='border:2px black solid;' src='stims/img/CFD-LF-252-172-N.jpg'>
        </div>
        <div class='header-text'> &nbsp; </div>
    </div>
    ","null","5","false","10","stims/img/CFD-LF-252-172-N.jpg","Amy","12","stims/img/CFD-AF-239-171-N.jpg","Isabella","","",""
"","null","fixation","html-keyboard-response","194","1006049","0.0-3.0-0.93","29","4","<div style = ""font-size:60px;""> + </div>","null","","","","","","","","","","",""
"","null","learning_trial","html-keyboard-response","195","1008556","0.0-3.0-1.93","29","4","
    <div class = 'grid-container'>
        <div class='header-text'> Friends </div>
        <div>
            Isabella
            <img width='150' style='border:2px black solid;' src='stims/img/CFD-AF-239-171-N.jpg'>
        </div>
        <div> &nbsp; + &nbsp; </div>
        <div>
            David
            <img width='150' style='border:2px black solid;' src='stims/img/CFD-LM-216-082-N.jpg'>
        </div>
        <div class='header-text'> &nbsp; </div>
    </div>
    ","null","5","false","11","stims/img/CFD-LM-216-082-N.jpg","David","12","stims/img/CFD-AF-239-171-N.jpg","Isabella","","",""
"","null","fixation","html-keyboard-response","196","1009062","0.0-3.0-0.94","29","4","<div style = ""font-size:60px;""> + </div>","null","","","","","","","","","","",""
"","null","learning_trial","html-keyboard-response","197","1011568","0.0-3.0-1.94","29","4","
    <div class = 'grid-container'>
        <div class='header-text'> Friends </div>
        <div>
            Serenity
            <img width='150' style='border:2px black solid;' src='stims/img/CFD-BF-235-168-N.jpg'>
        </div>
        <div> &nbsp; + &nbsp; </div>
        <div>
            David
            <img width='150' style='border:2px black solid;' src='stims/img/CFD-LM-216-082-N.jpg'>
        </div>
        <div class='header-text'> &nbsp; </div>
    </div>
    ","null","5","true","9","stims/img/CFD-BF-235-168-N.jpg","Serenity","11","stims/img/CFD-LM-216-082-N.jpg","David","","",""
"","null","fixation","html-keyboard-response","198","1012074","0.0-3.0-0.95","29","4","<div style = ""font-size:60px;""> + </div>","null","","","","","","","","","","",""
"","null","learning_trial","html-keyboard-response","199","1014575","0.0-3.0-1.95","29","4","
    <div class = 'grid-container'>
        <div class='header-text'> Friends </div>
        <div>
            Victoria
            <img width='150' style='border:2px black solid;' src='stims/img/CFD-WF-232-161-N.jpg'>
        </div>
        <div> &nbsp; + &nbsp; </div>
        <div>
            Miriam
            <img width='150' style='border:2px black solid;' src='stims/img/CFD-WF-252-159-N.jpg'>
        </div>
        <div class='header-text'> &nbsp; </div>
    </div>
    ","null","5","true","2","stims/img/CFD-WF-232-161-N.jpg","Victoria","4","stims/img/CFD-WF-252-159-N.jpg","Miriam","","",""
"","null","fixation","html-keyboard-response","200","1015080","0.0-3.0-0.96","29","4","<div style = ""font-size:60px;""> + </div>","null","","","","","","","","","","",""
"","null","learning_trial","html-keyboard-response","201","1017587","0.0-3.0-1.96","29","4","
    <div class = 'grid-container'>
        <div class='header-text'> Friends </div>
        <div>
            Alvin
            <img width='150' style='border:2px black solid;' src='stims/img/CFD-AM-207-108-N.jpg'>
        </div>
        <div> &nbsp; + &nbsp; </div>
        <div>
            Alexander
            <img width='150' style='border:2px black solid;' src='stims/img/CFD-WM-218-074-N.jpg'>
        </div>
        <div class='header-text'> &nbsp; </div>
    </div>
    ","null","5","false","3","stims/img/CFD-WM-218-074-N.jpg","Alexander","5","stims/img/CFD-AM-207-108-N.jpg","Alvin","","",""
"","null","fixation","html-keyboard-response","202","1018094","0.0-3.0-0.97","29","4","<div style = ""font-size:60px;""> + </div>","null","","","","","","","","","","",""
"","null","learning_trial","html-keyboard-response","203","1020601","0.0-3.0-1.97","29","4","
    <div class = 'grid-container'>
        <div class='header-text'> Friends </div>
        <div>
            Alvin
            <img width='150' style='border:2px black solid;' src='stims/img/CFD-AM-207-108-N.jpg'>
        </div>
        <div> &nbsp; + &nbsp; </div>
        <div>
            Nevaeh
            <img width='150' style='border:2px black solid;' src='stims/img/CFD-BF-232-187-N.jpg'>
        </div>
        <div class='header-text'> &nbsp; </div>
    </div>
    ","null","5","true","5","stims/img/CFD-AM-207-108-N.jpg","Alvin","7","stims/img/CFD-BF-232-187-N.jpg","Nevaeh","","",""
"","null","fixation","html-keyboard-response","204","1021106","0.0-3.0-0.98","29","4","<div style = ""font-size:60px;""> + </div>","null","","","","","","","","","","",""
"","null","learning_trial","html-keyboard-response","205","1023610","0.0-3.0-1.98","29","4","
    <div class = 'grid-container'>
        <div class='header-text'> Friends </div>
        <div>
            David
            <img width='150' style='border:2px black solid;' src='stims/img/CFD-LM-216-082-N.jpg'>
        </div>
        <div> &nbsp; + &nbsp; </div>
        <div>
            Amari
            <img width='150' style='border:2px black solid;' src='stims/img/CFD-BM-237-188-N.jpg'>
        </div>
        <div class='header-text'> &nbsp; </div>
    </div>
    ","null","5","true","11","stims/img/CFD-LM-216-082-N.jpg","David","13","stims/img/CFD-BM-237-188-N.jpg","Amari","","",""
"","null","fixation","html-keyboard-response","206","1024116","0.0-3.0-0.99","29","4","<div style = ""font-size:60px;""> + </div>","null","","","","","","","","","","",""
"","null","learning_trial","html-keyboard-response","207","1026623","0.0-3.0-1.99","29","4","
    <div class = 'grid-container'>
        <div class='header-text'> Friends </div>
        <div>
            Amari
            <img width='150' style='border:2px black solid;' src='stims/img/CFD-BM-237-188-N.jpg'>
        </div>
        <div> &nbsp; + &nbsp; </div>
        <div>
            Isabella
            <img width='150' style='border:2px black solid;' src='stims/img/CFD-AF-239-171-N.jpg'>
        </div>
        <div class='header-text'> &nbsp; </div>
    </div>
    ","null","5","false","12","stims/img/CFD-AF-239-171-N.jpg","Isabella","13","stims/img/CFD-BM-237-188-N.jpg","Amari","","",""
"","null","fixation","html-keyboard-response","208","1027129","0.0-3.0-0.100","29","4","<div style = ""font-size:60px;""> + </div>","null","","","","","","","","","","",""
"","null","learning_trial","html-keyboard-response","209","1029636","0.0-3.0-1.100","29","4","
    <div class = 'grid-container'>
        <div class='header-text'> Friends </div>
        <div>
            Emma
            <img width='150' style='border:2px black solid;' src='stims/img/CFD-AF-217-155-N.jpg'>
        </div>
        <div> &nbsp; + &nbsp; </div>
        <div>
            Nevaeh
            <img width='150' style='border:2px black solid;' src='stims/img/CFD-BF-232-187-N.jpg'>
        </div>
        <div class='header-text'> &nbsp; </div>
    </div>
    ","null","5","true","6","stims/img/CFD-AF-217-155-N.jpg","Emma","7","stims/img/CFD-BF-232-187-N.jpg","Nevaeh","","",""
"","null","fixation","html-keyboard-response","210","1030142","0.0-3.0-0.101","29","4","<div style = ""font-size:60px;""> + </div>","null","","","","","","","","","","",""
"","null","learning_trial","html-keyboard-response","211","1032649","0.0-3.0-1.101","29","4","
    <div class = 'grid-container'>
        <div class='header-text'> Friends </div>
        <div>
            Alexander
            <img width='150' style='border:2px black solid;' src='stims/img/CFD-WM-218-074-N.jpg'>
        </div>
        <div> &nbsp; + &nbsp; </div>
        <div>
            Miriam
            <img width='150' style='border:2px black solid;' src='stims/img/CFD-WF-252-159-N.jpg'>
        </div>
        <div class='header-text'> &nbsp; </div>
    </div>
    ","null","5","true","3","stims/img/CFD-WM-218-074-N.jpg","Alexander","4","stims/img/CFD-WF-252-159-N.jpg","Miriam","","",""
"","1224","break","html-keyboard-response","212","1033875","0.0-3.0-2.101-0.101","29","4","If you'd like to take a break before continuing, 
    please do so now. <p>To continue, please press the spacebar.</p>"," ","","","","","","","","","","",""
"","null","fixation","html-keyboard-response","213","1034381","0.0-3.0-0.102","29","4","<div style = ""font-size:60px;""> + </div>","null","","","","","","","","","","",""
"","null","learning_trial","html-keyboard-response","214","1036888","0.0-3.0-1.102","29","4","
    <div class = 'grid-container'>
        <div class='header-text'> Friends </div>
        <div>
            Isabella
            <img width='150' style='border:2px black solid;' src='stims/img/CFD-AF-239-171-N.jpg'>
        </div>
        <div> &nbsp; + &nbsp; </div>
        <div>
            David
            <img width='150' style='border:2px black solid;' src='stims/img/CFD-LM-216-082-N.jpg'>
        </div>
        <div class='header-text'> &nbsp; </div>
    </div>
    ","null","6","false","11","stims/img/CFD-LM-216-082-N.jpg","David","12","stims/img/CFD-AF-239-171-N.jpg","Isabella","","",""
"","null","fixation","html-keyboard-response","215","1037394","0.0-3.0-0.103","29","4","<div style = ""font-size:60px;""> + </div>","null","","","","","","","","","","",""
"","null","learning_trial","html-keyboard-response","216","1039901","0.0-3.0-1.103","29","4","
    <div class = 'grid-container'>
        <div class='header-text'> Friends </div>
        <div>
            Miriam
            <img width='150' style='border:2px black solid;' src='stims/img/CFD-WF-252-159-N.jpg'>
        </div>
        <div> &nbsp; + &nbsp; </div>
        <div>
            Alexander
            <img width='150' style='border:2px black solid;' src='stims/img/CFD-WM-218-074-N.jpg'>
        </div>
        <div class='header-text'> &nbsp; </div>
    </div>
    ","null","6","false","3","stims/img/CFD-WM-218-074-N.jpg","Alexander","4","stims/img/CFD-WF-252-159-N.jpg","Miriam","","",""
"","null","fixation","html-keyboard-response","217","1040408","0.0-3.0-0.104","29","4","<div style = ""font-size:60px;""> + </div>","null","","","","","","","","","","",""
"","null","learning_trial","html-keyboard-response","218","1042915","0.0-3.0-1.104","29","4","
    <div class = 'grid-container'>
        <div class='header-text'> Friends </div>
        <div>
            Amari
            <img width='150' style='border:2px black solid;' src='stims/img/CFD-BM-237-188-N.jpg'>
        </div>
        <div> &nbsp; + &nbsp; </div>
        <div>
            Isabella
            <img width='150' style='border:2px black solid;' src='stims/img/CFD-AF-239-171-N.jpg'>
        </div>
        <div class='header-text'> &nbsp; </div>
    </div>
    ","null","6","false","12","stims/img/CFD-AF-239-171-N.jpg","Isabella","13","stims/img/CFD-BM-237-188-N.jpg","Amari","","",""
"","null","fixation","html-keyboard-response","219","1043420","0.0-3.0-0.105","29","4","<div style = ""font-size:60px;""> + </div>","null","","","","","","","","","","",""
"","null","learning_trial","html-keyboard-response","220","1045927","0.0-3.0-1.105","29","4","
    <div class = 'grid-container'>
        <div class='header-text'> Friends </div>
        <div>
            Miriam
            <img width='150' style='border:2px black solid;' src='stims/img/CFD-WF-252-159-N.jpg'>
        </div>
        <div> &nbsp; + &nbsp; </div>
        <div>
            Victoria
            <img width='150' style='border:2px black solid;' src='stims/img/CFD-WF-232-161-N.jpg'>
        </div>
        <div class='header-text'> &nbsp; </div>
    </div>
    ","null","6","false","2","stims/img/CFD-WF-232-161-N.jpg","Victoria","4","stims/img/CFD-WF-252-159-N.jpg","Miriam","","",""
"","null","fixation","html-keyboard-response","221","1046434","0.0-3.0-0.106","29","4","<div style = ""font-size:60px;""> + </div>","null","","","","","","","","","","",""
"","null","learning_trial","html-keyboard-response","222","1048941","0.0-3.0-1.106","29","4","
    <div class = 'grid-container'>
        <div class='header-text'> Friends </div>
        <div>
            Serenity
            <img width='150' style='border:2px black solid;' src='stims/img/CFD-BF-235-168-N.jpg'>
        </div>
        <div> &nbsp; + &nbsp; </div>
        <div>
            David
            <img width='150' style='border:2px black solid;' src='stims/img/CFD-LM-216-082-N.jpg'>
        </div>
        <div class='header-text'> &nbsp; </div>
    </div>
    ","null","6","true","9","stims/img/CFD-BF-235-168-N.jpg","Serenity","11","stims/img/CFD-LM-216-082-N.jpg","David","","",""
"","null","fixation","html-keyboard-response","223","1049445","0.0-3.0-0.107","29","4","<div style = ""font-size:60px;""> + </div>","null","","","","","","","","","","",""
"","null","learning_trial","html-keyboard-response","224","1051951","0.0-3.0-1.107","29","4","
    <div class = 'grid-container'>
        <div class='header-text'> Friends </div>
        <div>
            Isabella
            <img width='150' style='border:2px black solid;' src='stims/img/CFD-AF-239-171-N.jpg'>
        </div>
        <div> &nbsp; + &nbsp; </div>
        <div>
            Amy
            <img width='150' style='border:2px black solid;' src='stims/img/CFD-LF-252-172-N.jpg'>
        </div>
        <div class='header-text'> &nbsp; </div>
    </div>
    ","null","6","false","10","stims/img/CFD-LF-252-172-N.jpg","Amy","12","stims/img/CFD-AF-239-171-N.jpg","Isabella","","",""
"","null","fixation","html-keyboard-response","225","1052457","0.0-3.0-0.108","29","4","<div style = ""font-size:60px;""> + </div>","null","","","","","","","","","","",""
"","null","learning_trial","html-keyboard-response","226","1054960","0.0-3.0-1.108","29","4","
    <div class = 'grid-container'>
        <div class='header-text'> Friends </div>
        <div>
            Alexander
            <img width='150' style='border:2px black solid;' src='stims/img/CFD-WM-218-074-N.jpg'>
        </div>
        <div> &nbsp; + &nbsp; </div>
        <div>
            Alvin
            <img width='150' style='border:2px black solid;' src='stims/img/CFD-AM-207-108-N.jpg'>
        </div>
        <div class='header-text'> &nbsp; </div>
    </div>
    ","null","6","true","3","stims/img/CFD-WM-218-074-N.jpg","Alexander","5","stims/img/CFD-AM-207-108-N.jpg","Alvin","","",""
"","null","fixation","html-keyboard-response","227","1055466","0.0-3.0-0.109","29","4","<div style = ""font-size:60px;""> + </div>","null","","","","","","","","","","",""
"","null","learning_trial","html-keyboard-response","228","1057973","0.0-3.0-1.109","29","4","
    <div class = 'grid-container'>
        <div class='header-text'> Friends </div>
        <div>
            Victoria
            <img width='150' style='border:2px black solid;' src='stims/img/CFD-WF-232-161-N.jpg'>
        </div>
        <div> &nbsp; + &nbsp; </div>
        <div>
            Mason
            <img width='150' style='border:2px black solid;' src='stims/img/CFD-BM-226-276-N.jpg'>
        </div>
        <div class='header-text'> &nbsp; </div>
    </div>
    ","null","6","false","1","stims/img/CFD-BM-226-276-N.jpg","Mason","2","stims/img/CFD-WF-232-161-N.jpg","Victoria","","",""
"","null","fixation","html-keyboard-response","229","1058479","0.0-3.0-0.110","29","4","<div style = ""font-size:60px;""> + </div>","null","","","","","","","","","","",""
"","null","learning_trial","html-keyboard-response","230","1060986","0.0-3.0-1.110","29","4","
    <div class = 'grid-container'>
        <div class='header-text'> Friends </div>
        <div>
            Miriam
            <img width='150' style='border:2px black solid;' src='stims/img/CFD-WF-252-159-N.jpg'>
        </div>
        <div> &nbsp; + &nbsp; </div>
        <div>
            Alvin
            <img width='150' style='border:2px black solid;' src='stims/img/CFD-AM-207-108-N.jpg'>
        </div>
        <div class='header-text'> &nbsp; </div>
    </div>
    ","null","6","true","4","stims/img/CFD-WF-252-159-N.jpg","Miriam","5","stims/img/CFD-AM-207-108-N.jpg","Alvin","","",""
"","null","fixation","html-keyboard-response","231","1061492","0.0-3.0-0.111","29","4","<div style = ""font-size:60px;""> + </div>","null","","","","","","","","","","",""
"","null","learning_trial","html-keyboard-response","232","1063995","0.0-3.0-1.111","29","4","
    <div class = 'grid-container'>
        <div class='header-text'> Friends </div>
        <div>
            Vincent
            <img width='150' style='border:2px black solid;' src='stims/img/CFD-AM-238-269-N.jpg'>
        </div>
        <div> &nbsp; + &nbsp; </div>
        <div>
            Serenity
            <img width='150' style='border:2px black solid;' src='stims/img/CFD-BF-235-168-N.jpg'>
        </div>
        <div class='header-text'> &nbsp; </div>
    </div>
    ","null","6","true","8","stims/img/CFD-AM-238-269-N.jpg","Vincent","9","stims/img/CFD-BF-235-168-N.jpg","Serenity","","",""
"","null","fixation","html-keyboard-response","233","1064501","0.0-3.0-0.112","29","4","<div style = ""font-size:60px;""> + </div>","null","","","","","","","","","","",""
"","null","learning_trial","html-keyboard-response","234","1067009","0.0-3.0-1.112","29","4","
    <div class = 'grid-container'>
        <div class='header-text'> Friends </div>
        <div>
            Emma
            <img width='150' style='border:2px black solid;' src='stims/img/CFD-AF-217-155-N.jpg'>
        </div>
        <div> &nbsp; + &nbsp; </div>
        <div>
            Miriam
