"view_history","rt","trial_purpose","trial_type","trial_index","time_elapsed","internal_node_id","sub_id","bonus","stimulus","response","rep","display_left","from_id","from_face","from_name","to_id","to_face","to_name","friendship","correct","slider_start"
"[{""page_index"":0,""viewing_time"":363100}]","363100","confirm_correct","instructions","0","363086","0.0-0.0","25","3","","","","","","","","","","","","",""
"[{""page_index"":0,""viewing_time"":64932},{""page_index"":1,""viewing_time"":3567},{""page_index"":2,""viewing_time"":1683}]","70182","instructions","instructions","1","433268","0.0-1.0","25","3","","","","","","","","","","","","",""
"[{""page_index"":0,""viewing_time"":1614},{""page_index"":1,""viewing_time"":7001},{""page_index"":2,""viewing_time"":12533},{""page_index"":3,""viewing_time"":1301}]","22449","instructions","instructions","2","455719","0.0-2.0","25","3","","","","","","","","","","","","",""
"","null","fixation","html-keyboard-response","3","456228","0.0-3.0-0.0","25","3","<div style = ""font-size:60px;""> + </div>","null","","","","","","","","","","",""
"","null","learning_trial","html-keyboard-response","4","458736","0.0-3.0-1.0","25","3","
    <div class = 'grid-container'>
        <div class='header-text'> Friends </div>
        <div>
            Christopher
            <img width='150' style='border:2px black solid;' src='stims/img/CFD-LM-207-004-N.jpg'>
        </div>
        <div> &nbsp; + &nbsp; </div>
        <div>
            Anthony
            <img width='150' style='border:2px black solid;' src='stims/img/CFD-LM-214-165-N.jpg'>
        </div>
        <div class='header-text'> &nbsp; </div>
    </div>
    ","null","0","false","1","stims/img/CFD-LM-214-165-N.jpg","Anthony","8","stims/img/CFD-LM-207-004-N.jpg","Christopher","","",""
"","null","fixation","html-keyboard-response","5","459244","0.0-3.0-0.1","25","3","<div style = ""font-size:60px;""> + </div>","null","","","","","","","","","","",""
"","null","learning_trial","html-keyboard-response","6","461751","0.0-3.0-1.1","25","3","
    <div class = 'grid-container'>
        <div class='header-text'> Friends </div>
        <div>
            Elijah
            <img width='150' style='border:2px black solid;' src='stims/img/CFD-BM-210-148-N.jpg'>
        </div>
        <div> &nbsp; + &nbsp; </div>
        <div>
            Camila
            <img width='150' style='border:2px black solid;' src='stims/img/CFD-LF-213-079-N.jpg'>
        </div>
        <div class='header-text'> &nbsp; </div>
    </div>
    ","null","0","true","4","stims/img/CFD-BM-210-148-N.jpg","Elijah","5","stims/img/CFD-LF-213-079-N.jpg","Camila","","",""
"","null","fixation","html-keyboard-response","7","462258","0.0-3.0-0.2","25","3","<div style = ""font-size:60px;""> + </div>","null","","","","","","","","","","",""
"","null","learning_trial","html-keyboard-response","8","464765","0.0-3.0-1.2","25","3","
    <div class = 'grid-container'>
        <div class='header-text'> Friends </div>
        <div>
            Ava
            <img width='150' style='border:2px black solid;' src='stims/img/CFD-BF-242-154-N.jpg'>
        </div>
        <div> &nbsp; + &nbsp; </div>
        <div>
            Iris
            <img width='150' style='border:2px black solid;' src='stims/img/CFD-AF-227-207-N.jpg'>
        </div>
        <div class='header-text'> &nbsp; </div>
    </div>
    ","null","0","true","12","stims/img/CFD-BF-242-154-N.jpg","Ava","13","stims/img/CFD-AF-227-207-N.jpg","Iris","","",""
"","null","fixation","html-keyboard-response","9","465272","0.0-3.0-0.3","25","3","<div style = ""font-size:60px;""> + </div>","null","","","","","","","","","","",""
"","null","learning_trial","html-keyboard-response","10","467780","0.0-3.0-1.3","25","3","
    <div class = 'grid-container'>
        <div class='header-text'> Friends </div>
        <div>
            Angelina
            <img width='150' style='border:2px black solid;' src='stims/img/CFD-LF-244-096-N.jpg'>
        </div>
        <div> &nbsp; + &nbsp; </div>
        <div>
            Camila
            <img width='150' style='border:2px black solid;' src='stims/img/CFD-LF-213-079-N.jpg'>
        </div>
        <div class='header-text'> &nbsp; </div>
    </div>
    ","null","0","true","3","stims/img/CFD-LF-244-096-N.jpg","Angelina","5","stims/img/CFD-LF-213-079-N.jpg","Camila","","",""
"","null","fixation","html-keyboard-response","11","468286","0.0-3.0-0.4","25","3","<div style = ""font-size:60px;""> + </div>","null","","","","","","","","","","",""
"","null","learning_trial","html-keyboard-response","12","470794","0.0-3.0-1.4","25","3","
    <div class = 'grid-container'>
        <div class='header-text'> Friends </div>
        <div>
            Sophia
            <img width='150' style='border:2px black solid;' src='stims/img/CFD-WF-202-056-N.jpg'>
        </div>
        <div> &nbsp; + &nbsp; </div>
        <div>
            Angelina
            <img width='150' style='border:2px black solid;' src='stims/img/CFD-LF-244-096-N.jpg'>
        </div>
        <div class='header-text'> &nbsp; </div>
    </div>
    ","null","0","true","2","stims/img/CFD-WF-202-056-N.jpg","Sophia","3","stims/img/CFD-LF-244-096-N.jpg","Angelina","","",""
"","null","fixation","html-keyboard-response","13","471301","0.0-3.0-0.5","25","3","<div style = ""font-size:60px;""> + </div>","null","","","","","","","","","","",""
"","null","learning_trial","html-keyboard-response","14","473809","0.0-3.0-1.5","25","3","
    <div class = 'grid-container'>
        <div class='header-text'> Friends </div>
        <div>
            Christopher
            <img width='150' style='border:2px black solid;' src='stims/img/CFD-LM-207-004-N.jpg'>
        </div>
        <div> &nbsp; + &nbsp; </div>
        <div>
            Aaron
            <img width='150' style='border:2px black solid;' src='stims/img/CFD-AM-201-076-N.jpg'>
        </div>
        <div class='header-text'> &nbsp; </div>
    </div>
    ","null","0","true","8","stims/img/CFD-LM-207-004-N.jpg","Christopher","9","stims/img/CFD-AM-201-076-N.jpg","Aaron","","",""
"","null","fixation","html-keyboard-response","15","474315","0.0-3.0-0.6","25","3","<div style = ""font-size:60px;""> + </div>","null","","","","","","","","","","",""
"","null","learning_trial","html-keyboard-response","16","476822","0.0-3.0-1.6","25","3","
    <div class = 'grid-container'>
        <div class='header-text'> Friends </div>
        <div>
            Brandon
            <img width='150' style='border:2px black solid;' src='stims/img/CFD-BM-226-276-N.jpg'>
        </div>
        <div> &nbsp; + &nbsp; </div>
        <div>
            Iris
            <img width='150' style='border:2px black solid;' src='stims/img/CFD-AF-227-207-N.jpg'>
        </div>
        <div class='header-text'> &nbsp; </div>
    </div>
    ","null","0","true","11","stims/img/CFD-BM-226-276-N.jpg","Brandon","13","stims/img/CFD-AF-227-207-N.jpg","Iris","","",""
"","null","fixation","html-keyboard-response","17","477328","0.0-3.0-0.7","25","3","<div style = ""font-size:60px;""> + </div>","null","","","","","","","","","","",""
"","null","learning_trial","html-keyboard-response","18","479835","0.0-3.0-1.7","25","3","
    <div class = 'grid-container'>
        <div class='header-text'> Friends </div>
        <div>
            Elijah
            <img width='150' style='border:2px black solid;' src='stims/img/CFD-BM-210-148-N.jpg'>
        </div>
        <div> &nbsp; + &nbsp; </div>
        <div>
            Angelina
            <img width='150' style='border:2px black solid;' src='stims/img/CFD-LF-244-096-N.jpg'>
        </div>
        <div class='header-text'> &nbsp; </div>
    </div>
    ","null","0","false","3","stims/img/CFD-LF-244-096-N.jpg","Angelina","4","stims/img/CFD-BM-210-148-N.jpg","Elijah","","",""
"","null","fixation","html-keyboard-response","19","480341","0.0-3.0-0.8","25","3","<div style = ""font-size:60px;""> + </div>","null","","","","","","","","","","",""
"","null","learning_trial","html-keyboard-response","20","482848","0.0-3.0-1.8","25","3","
    <div class = 'grid-container'>
        <div class='header-text'> Friends </div>
        <div>
            Jack
            <img width='150' style='border:2px black solid;' src='stims/img/CFD-WM-200-034-N.jpg'>
        </div>
        <div> &nbsp; + &nbsp; </div>
        <div>
            Ava
            <img width='150' style='border:2px black solid;' src='stims/img/CFD-BF-242-154-N.jpg'>
        </div>
        <div class='header-text'> &nbsp; </div>
    </div>
    ","null","0","true","10","stims/img/CFD-WM-200-034-N.jpg","Jack","12","stims/img/CFD-BF-242-154-N.jpg","Ava","","",""
"","null","fixation","html-keyboard-response","21","483354","0.0-3.0-0.9","25","3","<div style = ""font-size:60px;""> + </div>","null","","","","","","","","","","",""
"","null","learning_trial","html-keyboard-response","22","485863","0.0-3.0-1.9","25","3","
    <div class = 'grid-container'>
        <div class='header-text'> Friends </div>
        <div>
            Emma
            <img width='150' style='border:2px black solid;' src='stims/img/CFD-AF-203-077-N.jpg'>
        </div>
        <div> &nbsp; + &nbsp; </div>
        <div>
            Kyle
            <img width='150' style='border:2px black solid;' src='stims/img/CFD-AM-220-134-N.jpg'>
        </div>
        <div class='header-text'> &nbsp; </div>
    </div>
    ","null","0","true","6","stims/img/CFD-AF-203-077-N.jpg","Emma","7","stims/img/CFD-AM-220-134-N.jpg","Kyle","","",""
"","null","fixation","html-keyboard-response","23","486370","0.0-3.0-0.10","25","3","<div style = ""font-size:60px;""> + </div>","null","","","","","","","","","","",""
"","null","learning_trial","html-keyboard-response","24","488876","0.0-3.0-1.10","25","3","
    <div class = 'grid-container'>
        <div class='header-text'> Friends </div>
        <div>
            Camila
            <img width='150' style='border:2px black solid;' src='stims/img/CFD-LF-213-079-N.jpg'>
        </div>
        <div> &nbsp; + &nbsp; </div>
        <div>
            Kyle
            <img width='150' style='border:2px black solid;' src='stims/img/CFD-AM-220-134-N.jpg'>
        </div>
        <div class='header-text'> &nbsp; </div>
    </div>
    ","null","0","true","5","stims/img/CFD-LF-213-079-N.jpg","Camila","7","stims/img/CFD-AM-220-134-N.jpg","Kyle","","",""
"","null","fixation","html-keyboard-response","25","489382","0.0-3.0-0.11","25","3","<div style = ""font-size:60px;""> + </div>","null","","","","","","","","","","",""
"","null","learning_trial","html-keyboard-response","26","491888","0.0-3.0-1.11","25","3","
    <div class = 'grid-container'>
        <div class='header-text'> Friends </div>
        <div>
            Brandon
            <img width='150' style='border:2px black solid;' src='stims/img/CFD-BM-226-276-N.jpg'>
        </div>
        <div> &nbsp; + &nbsp; </div>
        <div>
            Aaron
            <img width='150' style='border:2px black solid;' src='stims/img/CFD-AM-201-076-N.jpg'>
        </div>
        <div class='header-text'> &nbsp; </div>
    </div>
    ","null","0","false","9","stims/img/CFD-AM-201-076-N.jpg","Aaron","11","stims/img/CFD-BM-226-276-N.jpg","Brandon","","",""
"","null","fixation","html-keyboard-response","27","492393","0.0-3.0-0.12","25","3","<div style = ""font-size:60px;""> + </div>","null","","","","","","","","","","",""
"","null","learning_trial","html-keyboard-response","28","494896","0.0-3.0-1.12","25","3","
    <div class = 'grid-container'>
        <div class='header-text'> Friends </div>
        <div>
            Jack
            <img width='150' style='border:2px black solid;' src='stims/img/CFD-WM-200-034-N.jpg'>
        </div>
        <div> &nbsp; + &nbsp; </div>
        <div>
            Christopher
            <img width='150' style='border:2px black solid;' src='stims/img/CFD-LM-207-004-N.jpg'>
        </div>
        <div class='header-text'> &nbsp; </div>
    </div>
    ","null","0","false","8","stims/img/CFD-LM-207-004-N.jpg","Christopher","10","stims/img/CFD-WM-200-034-N.jpg","Jack","","",""
"","null","fixation","html-keyboard-response","29","495398","0.0-3.0-0.13","25","3","<div style = ""font-size:60px;""> + </div>","null","","","","","","","","","","",""
"","null","learning_trial","html-keyboard-response","30","497904","0.0-3.0-1.13","25","3","
    <div class = 'grid-container'>
        <div class='header-text'> Friends </div>
        <div>
            Sophia
            <img width='150' style='border:2px black solid;' src='stims/img/CFD-WF-202-056-N.jpg'>
        </div>
        <div> &nbsp; + &nbsp; </div>
        <div>
            Elijah
            <img width='150' style='border:2px black solid;' src='stims/img/CFD-BM-210-148-N.jpg'>
        </div>
        <div class='header-text'> &nbsp; </div>
    </div>
    ","null","0","true","2","stims/img/CFD-WF-202-056-N.jpg","Sophia","4","stims/img/CFD-BM-210-148-N.jpg","Elijah","","",""
"","null","fixation","html-keyboard-response","31","498405","0.0-3.0-0.14","25","3","<div style = ""font-size:60px;""> + </div>","null","","","","","","","","","","",""
"","null","learning_trial","html-keyboard-response","32","500910","0.0-3.0-1.14","25","3","
    <div class = 'grid-container'>
        <div class='header-text'> Friends </div>
        <div>
            Elijah
            <img width='150' style='border:2px black solid;' src='stims/img/CFD-BM-210-148-N.jpg'>
        </div>
        <div> &nbsp; + &nbsp; </div>
        <div>
            Emma
            <img width='150' style='border:2px black solid;' src='stims/img/CFD-AF-203-077-N.jpg'>
        </div>
        <div class='header-text'> &nbsp; </div>
    </div>
    ","null","0","true","4","stims/img/CFD-BM-210-148-N.jpg","Elijah","6","stims/img/CFD-AF-203-077-N.jpg","Emma","","",""
"","null","fixation","html-keyboard-response","33","501416","0.0-3.0-0.15","25","3","<div style = ""font-size:60px;""> + </div>","null","","","","","","","","","","",""
"","null","learning_trial","html-keyboard-response","34","503923","0.0-3.0-1.15","25","3","
    <div class = 'grid-container'>
        <div class='header-text'> Friends </div>
        <div>
            Brandon
            <img width='150' style='border:2px black solid;' src='stims/img/CFD-BM-226-276-N.jpg'>
        </div>
        <div> &nbsp; + &nbsp; </div>
        <div>
            Ava
            <img width='150' style='border:2px black solid;' src='stims/img/CFD-BF-242-154-N.jpg'>
        </div>
        <div class='header-text'> &nbsp; </div>
    </div>
    ","null","0","true","11","stims/img/CFD-BM-226-276-N.jpg","Brandon","12","stims/img/CFD-BF-242-154-N.jpg","Ava","","",""
"","null","fixation","html-keyboard-response","35","504429","0.0-3.0-0.16","25","3","<div style = ""font-size:60px;""> + </div>","null","","","","","","","","","","",""
"","null","learning_trial","html-keyboard-response","36","506936","0.0-3.0-1.16","25","3","
    <div class = 'grid-container'>
        <div class='header-text'> Friends </div>
        <div>
            Sophia
            <img width='150' style='border:2px black solid;' src='stims/img/CFD-WF-202-056-N.jpg'>
        </div>
        <div> &nbsp; + &nbsp; </div>
        <div>
            Anthony
            <img width='150' style='border:2px black solid;' src='stims/img/CFD-LM-214-165-N.jpg'>
        </div>
        <div class='header-text'> &nbsp; </div>
    </div>
    ","null","0","false","1","stims/img/CFD-LM-214-165-N.jpg","Anthony","2","stims/img/CFD-WF-202-056-N.jpg","Sophia","","",""
"","29065","break","html-keyboard-response","37","536001","0.0-3.0-2.16-0.16","25","3","If you'd like to take a break before continuing, 
    please do so now. <p>To continue, please press the spacebar.</p>"," ","","","","","","","","","","",""
"","null","fixation","html-keyboard-response","38","536508","0.0-3.0-0.17","25","3","<div style = ""font-size:60px;""> + </div>","null","","","","","","","","","","",""
"","null","learning_trial","html-keyboard-response","39","539013","0.0-3.0-1.17","25","3","
    <div class = 'grid-container'>
        <div class='header-text'> Friends </div>
        <div>
            Emma
            <img width='150' style='border:2px black solid;' src='stims/img/CFD-AF-203-077-N.jpg'>
        </div>
        <div> &nbsp; + &nbsp; </div>
        <div>
            Elijah
            <img width='150' style='border:2px black solid;' src='stims/img/CFD-BM-210-148-N.jpg'>
        </div>
        <div class='header-text'> &nbsp; </div>
    </div>
    ","null","1","false","4","stims/img/CFD-BM-210-148-N.jpg","Elijah","6","stims/img/CFD-AF-203-077-N.jpg","Emma","","",""
"","null","fixation","html-keyboard-response","40","539514","0.0-3.0-0.18","25","3","<div style = ""font-size:60px;""> + </div>","null","","","","","","","","","","",""
"","null","learning_trial","html-keyboard-response","41","542021","0.0-3.0-1.18","25","3","
    <div class = 'grid-container'>
        <div class='header-text'> Friends </div>
        <div>
            Aaron
            <img width='150' style='border:2px black solid;' src='stims/img/CFD-AM-201-076-N.jpg'>
        </div>
        <div> &nbsp; + &nbsp; </div>
        <div>
            Christopher
            <img width='150' style='border:2px black solid;' src='stims/img/CFD-LM-207-004-N.jpg'>
        </div>
        <div class='header-text'> &nbsp; </div>
    </div>
    ","null","1","false","8","stims/img/CFD-LM-207-004-N.jpg","Christopher","9","stims/img/CFD-AM-201-076-N.jpg","Aaron","","",""
"","null","fixation","html-keyboard-response","42","542523","0.0-3.0-0.19","25","3","<div style = ""font-size:60px;""> + </div>","null","","","","","","","","","","",""
"","null","learning_trial","html-keyboard-response","43","545030","0.0-3.0-1.19","25","3","
    <div class = 'grid-container'>
        <div class='header-text'> Friends </div>
        <div>
            Emma
            <img width='150' style='border:2px black solid;' src='stims/img/CFD-AF-203-077-N.jpg'>
        </div>
        <div> &nbsp; + &nbsp; </div>
        <div>
            Kyle
            <img width='150' style='border:2px black solid;' src='stims/img/CFD-AM-220-134-N.jpg'>
        </div>
        <div class='header-text'> &nbsp; </div>
    </div>
    ","null","1","true","6","stims/img/CFD-AF-203-077-N.jpg","Emma","7","stims/img/CFD-AM-220-134-N.jpg","Kyle","","",""
"","null","fixation","html-keyboard-response","44","545535","0.0-3.0-0.20","25","3","<div style = ""font-size:60px;""> + </div>","null","","","","","","","","","","",""
"","null","learning_trial","html-keyboard-response","45","548043","0.0-3.0-1.20","25","3","
    <div class = 'grid-container'>
        <div class='header-text'> Friends </div>
        <div>
            Iris
            <img width='150' style='border:2px black solid;' src='stims/img/CFD-AF-227-207-N.jpg'>
        </div>
        <div> &nbsp; + &nbsp; </div>
        <div>
            Ava
            <img width='150' style='border:2px black solid;' src='stims/img/CFD-BF-242-154-N.jpg'>
        </div>
        <div class='header-text'> &nbsp; </div>
    </div>
    ","null","1","false","12","stims/img/CFD-BF-242-154-N.jpg","Ava","13","stims/img/CFD-AF-227-207-N.jpg","Iris","","",""
"","null","fixation","html-keyboard-response","46","548549","0.0-3.0-0.21","25","3","<div style = ""font-size:60px;""> + </div>","null","","","","","","","","","","",""
"","null","learning_trial","html-keyboard-response","47","551056","0.0-3.0-1.21","25","3","
    <div class = 'grid-container'>
        <div class='header-text'> Friends </div>
        <div>
            Anthony
            <img width='150' style='border:2px black solid;' src='stims/img/CFD-LM-214-165-N.jpg'>
        </div>
        <div> &nbsp; + &nbsp; </div>
        <div>
            Christopher
            <img width='150' style='border:2px black solid;' src='stims/img/CFD-LM-207-004-N.jpg'>
        </div>
        <div class='header-text'> &nbsp; </div>
    </div>
    ","null","1","true","1","stims/img/CFD-LM-214-165-N.jpg","Anthony","8","stims/img/CFD-LM-207-004-N.jpg","Christopher","","",""
"","null","fixation","html-keyboard-response","48","551563","0.0-3.0-0.22","25","3","<div style = ""font-size:60px;""> + </div>","null","","","","","","","","","","",""
"","null","learning_trial","html-keyboard-response","49","554070","0.0-3.0-1.22","25","3","
    <div class = 'grid-container'>
        <div class='header-text'> Friends </div>
        <div>
            Sophia
            <img width='150' style='border:2px black solid;' src='stims/img/CFD-WF-202-056-N.jpg'>
        </div>
        <div> &nbsp; + &nbsp; </div>
        <div>
            Elijah
            <img width='150' style='border:2px black solid;' src='stims/img/CFD-BM-210-148-N.jpg'>
        </div>
        <div class='header-text'> &nbsp; </div>
    </div>
    ","null","1","true","2","stims/img/CFD-WF-202-056-N.jpg","Sophia","4","stims/img/CFD-BM-210-148-N.jpg","Elijah","","",""
"","null","fixation","html-keyboard-response","50","554575","0.0-3.0-0.23","25","3","<div style = ""font-size:60px;""> + </div>","null","","","","","","","","","","",""
"","null","learning_trial","html-keyboard-response","51","557083","0.0-3.0-1.23","25","3","
    <div class = 'grid-container'>
        <div class='header-text'> Friends </div>
        <div>
            Aaron
            <img width='150' style='border:2px black solid;' src='stims/img/CFD-AM-201-076-N.jpg'>
        </div>
        <div> &nbsp; + &nbsp; </div>
        <div>
            Brandon
            <img width='150' style='border:2px black solid;' src='stims/img/CFD-BM-226-276-N.jpg'>
        </div>
        <div class='header-text'> &nbsp; </div>
    </div>
    ","null","1","true","9","stims/img/CFD-AM-201-076-N.jpg","Aaron","11","stims/img/CFD-BM-226-276-N.jpg","Brandon","","",""
"","null","fixation","html-keyboard-response","52","557584","0.0-3.0-0.24","25","3","<div style = ""font-size:60px;""> + </div>","null","","","","","","","","","","",""
"","null","learning_trial","html-keyboard-response","53","560090","0.0-3.0-1.24","25","3","
    <div class = 'grid-container'>
        <div class='header-text'> Friends </div>
        <div>
            Angelina
            <img width='150' style='border:2px black solid;' src='stims/img/CFD-LF-244-096-N.jpg'>
        </div>
        <div> &nbsp; + &nbsp; </div>
        <div>
            Sophia
            <img width='150' style='border:2px black solid;' src='stims/img/CFD-WF-202-056-N.jpg'>
        </div>
        <div class='header-text'> &nbsp; </div>
    </div>
    ","null","1","false","2","stims/img/CFD-WF-202-056-N.jpg","Sophia","3","stims/img/CFD-LF-244-096-N.jpg","Angelina","","",""
"","null","fixation","html-keyboard-response","54","560596","0.0-3.0-0.25","25","3","<div style = ""font-size:60px;""> + </div>","null","","","","","","","","","","",""
"","null","learning_trial","html-keyboard-response","55","563099","0.0-3.0-1.25","25","3","
    <div class = 'grid-container'>
        <div class='header-text'> Friends </div>
        <div>
            Angelina
            <img width='150' style='border:2px black solid;' src='stims/img/CFD-LF-244-096-N.jpg'>
        </div>
        <div> &nbsp; + &nbsp; </div>
        <div>
            Camila
            <img width='150' style='border:2px black solid;' src='stims/img/CFD-LF-213-079-N.jpg'>
        </div>
        <div class='header-text'> &nbsp; </div>
    </div>
    ","null","1","true","3","stims/img/CFD-LF-244-096-N.jpg","Angelina","5","stims/img/CFD-LF-213-079-N.jpg","Camila","","",""
"","null","fixation","html-keyboard-response","56","563605","0.0-3.0-0.26","25","3","<div style = ""font-size:60px;""> + </div>","null","","","","","","","","","","",""
"","null","learning_trial","html-keyboard-response","57","566106","0.0-3.0-1.26","25","3","
    <div class = 'grid-container'>
        <div class='header-text'> Friends </div>
        <div>
            Ava
            <img width='150' style='border:2px black solid;' src='stims/img/CFD-BF-242-154-N.jpg'>
        </div>
        <div> &nbsp; + &nbsp; </div>
        <div>
            Brandon
            <img width='150' style='border:2px black solid;' src='stims/img/CFD-BM-226-276-N.jpg'>
        </div>
        <div class='header-text'> &nbsp; </div>
    </div>
    ","null","1","false","11","stims/img/CFD-BM-226-276-N.jpg","Brandon","12","stims/img/CFD-BF-242-154-N.jpg","Ava","","",""
"","null","fixation","html-keyboard-response","58","566612","0.0-3.0-0.27","25","3","<div style = ""font-size:60px;""> + </div>","null","","","","","","","","","","",""
"","null","learning_trial","html-keyboard-response","59","569119","0.0-3.0-1.27","25","3","
    <div class = 'grid-container'>
        <div class='header-text'> Friends </div>
        <div>
            Anthony
            <img width='150' style='border:2px black solid;' src='stims/img/CFD-LM-214-165-N.jpg'>
        </div>
        <div> &nbsp; + &nbsp; </div>
        <div>
            Sophia
            <img width='150' style='border:2px black solid;' src='stims/img/CFD-WF-202-056-N.jpg'>
        </div>
        <div class='header-text'> &nbsp; </div>
    </div>
    ","null","1","true","1","stims/img/CFD-LM-214-165-N.jpg","Anthony","2","stims/img/CFD-WF-202-056-N.jpg","Sophia","","",""
"","null","fixation","html-keyboard-response","60","569624","0.0-3.0-0.28","25","3","<div style = ""font-size:60px;""> + </div>","null","","","","","","","","","","",""
"","null","learning_trial","html-keyboard-response","61","572131","0.0-3.0-1.28","25","3","
    <div class = 'grid-container'>
        <div class='header-text'> Friends </div>
        <div>
            Elijah
            <img width='150' style='border:2px black solid;' src='stims/img/CFD-BM-210-148-N.jpg'>
        </div>
        <div> &nbsp; + &nbsp; </div>
        <div>
            Camila
            <img width='150' style='border:2px black solid;' src='stims/img/CFD-LF-213-079-N.jpg'>
        </div>
        <div class='header-text'> &nbsp; </div>
    </div>
    ","null","1","true","4","stims/img/CFD-BM-210-148-N.jpg","Elijah","5","stims/img/CFD-LF-213-079-N.jpg","Camila","","",""
"","null","fixation","html-keyboard-response","62","572637","0.0-3.0-0.29","25","3","<div style = ""font-size:60px;""> + </div>","null","","","","","","","","","","",""
"","null","learning_trial","html-keyboard-response","63","575145","0.0-3.0-1.29","25","3","
    <div class = 'grid-container'>
        <div class='header-text'> Friends </div>
        <div>
            Kyle
            <img width='150' style='border:2px black solid;' src='stims/img/CFD-AM-220-134-N.jpg'>
        </div>
        <div> &nbsp; + &nbsp; </div>
        <div>
            Camila
            <img width='150' style='border:2px black solid;' src='stims/img/CFD-LF-213-079-N.jpg'>
        </div>
        <div class='header-text'> &nbsp; </div>
    </div>
    ","null","1","false","5","stims/img/CFD-LF-213-079-N.jpg","Camila","7","stims/img/CFD-AM-220-134-N.jpg","Kyle","","",""
"","null","fixation","html-keyboard-response","64","575650","0.0-3.0-0.30","25","3","<div style = ""font-size:60px;""> + </div>","null","","","","","","","","","","",""
"","null","learning_trial","html-keyboard-response","65","578158","0.0-3.0-1.30","25","3","
    <div class = 'grid-container'>
        <div class='header-text'> Friends </div>
        <div>
            Iris
            <img width='150' style='border:2px black solid;' src='stims/img/CFD-AF-227-207-N.jpg'>
        </div>
        <div> &nbsp; + &nbsp; </div>
        <div>
            Brandon
            <img width='150' style='border:2px black solid;' src='stims/img/CFD-BM-226-276-N.jpg'>
        </div>
        <div class='header-text'> &nbsp; </div>
    </div>
    ","null","1","false","11","stims/img/CFD-BM-226-276-N.jpg","Brandon","13","stims/img/CFD-AF-227-207-N.jpg","Iris","","",""
"","null","fixation","html-keyboard-response","66","578663","0.0-3.0-0.31","25","3","<div style = ""font-size:60px;""> + </div>","null","","","","","","","","","","",""
"","null","learning_trial","html-keyboard-response","67","581167","0.0-3.0-1.31","25","3","
    <div class = 'grid-container'>
        <div class='header-text'> Friends </div>
        <div>
            Jack
            <img width='150' style='border:2px black solid;' src='stims/img/CFD-WM-200-034-N.jpg'>
        </div>
        <div> &nbsp; + &nbsp; </div>
        <div>
            Ava
            <img width='150' style='border:2px black solid;' src='stims/img/CFD-BF-242-154-N.jpg'>
        </div>
        <div class='header-text'> &nbsp; </div>
    </div>
    ","null","1","true","10","stims/img/CFD-WM-200-034-N.jpg","Jack","12","stims/img/CFD-BF-242-154-N.jpg","Ava","","",""
"","null","fixation","html-keyboard-response","68","581673","0.0-3.0-0.32","25","3","<div style = ""font-size:60px;""> + </div>","null","","","","","","","","","","",""
"","null","learning_trial","html-keyboard-response","69","584180","0.0-3.0-1.32","25","3","
    <div class = 'grid-container'>
        <div class='header-text'> Friends </div>
        <div>
            Angelina
            <img width='150' style='border:2px black solid;' src='stims/img/CFD-LF-244-096-N.jpg'>
        </div>
        <div> &nbsp; + &nbsp; </div>
        <div>
            Elijah
            <img width='150' style='border:2px black solid;' src='stims/img/CFD-BM-210-148-N.jpg'>
        </div>
        <div class='header-text'> &nbsp; </div>
    </div>
    ","null","1","true","3","stims/img/CFD-LF-244-096-N.jpg","Angelina","4","stims/img/CFD-BM-210-148-N.jpg","Elijah","","",""
"","null","fixation","html-keyboard-response","70","584686","0.0-3.0-0.33","25","3","<div style = ""font-size:60px;""> + </div>","null","","","","","","","","","","",""
"","null","learning_trial","html-keyboard-response","71","587192","0.0-3.0-1.33","25","3","
    <div class = 'grid-container'>
        <div class='header-text'> Friends </div>
        <div>
            Jack
            <img width='150' style='border:2px black solid;' src='stims/img/CFD-WM-200-034-N.jpg'>
        </div>
        <div> &nbsp; + &nbsp; </div>
        <div>
            Christopher
            <img width='150' style='border:2px black solid;' src='stims/img/CFD-LM-207-004-N.jpg'>
        </div>
        <div class='header-text'> &nbsp; </div>
    </div>
    ","null","1","false","8","stims/img/CFD-LM-207-004-N.jpg","Christopher","10","stims/img/CFD-WM-200-034-N.jpg","Jack","","",""
"","28447","break","html-keyboard-response","72","615640","0.0-3.0-2.33-0.33","25","3","If you'd like to take a break before continuing, 
    please do so now. <p>To continue, please press the spacebar.</p>"," ","","","","","","","","","","",""
"","null","fixation","html-keyboard-response","73","616144","0.0-3.0-0.34","25","3","<div style = ""font-size:60px;""> + </div>","null","","","","","","","","","","",""
"","null","learning_trial","html-keyboard-response","74","618651","0.0-3.0-1.34","25","3","
    <div class = 'grid-container'>
        <div class='header-text'> Friends </div>
        <div>
            Aaron
            <img width='150' style='border:2px black solid;' src='stims/img/CFD-AM-201-076-N.jpg'>
        </div>
        <div> &nbsp; + &nbsp; </div>
        <div>
            Christopher
            <img width='150' style='border:2px black solid;' src='stims/img/CFD-LM-207-004-N.jpg'>
        </div>
        <div class='header-text'> &nbsp; </div>
    </div>
    ","null","2","false","8","stims/img/CFD-LM-207-004-N.jpg","Christopher","9","stims/img/CFD-AM-201-076-N.jpg","Aaron","","",""
"","null","fixation","html-keyboard-response","75","619157","0.0-3.0-0.35","25","3","<div style = ""font-size:60px;""> + </div>","null","","","","","","","","","","",""
"","null","learning_trial","html-keyboard-response","76","621664","0.0-3.0-1.35","25","3","
    <div class = 'grid-container'>
        <div class='header-text'> Friends </div>
        <div>
            Iris
            <img width='150' style='border:2px black solid;' src='stims/img/CFD-AF-227-207-N.jpg'>
        </div>
        <div> &nbsp; + &nbsp; </div>
        <div>
            Brandon
            <img width='150' style='border:2px black solid;' src='stims/img/CFD-BM-226-276-N.jpg'>
        </div>
        <div class='header-text'> &nbsp; </div>
    </div>
    ","null","2","false","11","stims/img/CFD-BM-226-276-N.jpg","Brandon","13","stims/img/CFD-AF-227-207-N.jpg","Iris","","",""
"","null","fixation","html-keyboard-response","77","622170","0.0-3.0-0.36","25","3","<div style = ""font-size:60px;""> + </div>","null","","","","","","","","","","",""
"","null","learning_trial","html-keyboard-response","78","624677","0.0-3.0-1.36","25","3","
    <div class = 'grid-container'>
        <div class='header-text'> Friends </div>
        <div>
            Elijah
            <img width='150' style='border:2px black solid;' src='stims/img/CFD-BM-210-148-N.jpg'>
        </div>
        <div> &nbsp; + &nbsp; </div>
        <div>
            Camila
            <img width='150' style='border:2px black solid;' src='stims/img/CFD-LF-213-079-N.jpg'>
        </div>
        <div class='header-text'> &nbsp; </div>
    </div>
    ","null","2","true","4","stims/img/CFD-BM-210-148-N.jpg","Elijah","5","stims/img/CFD-LF-213-079-N.jpg","Camila","","",""
"","null","fixation","html-keyboard-response","79","625178","0.0-3.0-0.37","25","3","<div style = ""font-size:60px;""> + </div>","null","","","","","","","","","","",""
"","null","learning_trial","html-keyboard-response","80","627686","0.0-3.0-1.37","25","3","
    <div class = 'grid-container'>
        <div class='header-text'> Friends </div>
        <div>
            Elijah
            <img width='150' style='border:2px black solid;' src='stims/img/CFD-BM-210-148-N.jpg'>
        </div>
        <div> &nbsp; + &nbsp; </div>
        <div>
            Angelina
            <img width='150' style='border:2px black solid;' src='stims/img/CFD-LF-244-096-N.jpg'>
        </div>
        <div class='header-text'> &nbsp; </div>
    </div>
    ","null","2","false","3","stims/img/CFD-LF-244-096-N.jpg","Angelina","4","stims/img/CFD-BM-210-148-N.jpg","Elijah","","",""
"","null","fixation","html-keyboard-response","81","628186","0.0-3.0-0.38","25","3","<div style = ""font-size:60px;""> + </div>","null","","","","","","","","","","",""
"","null","learning_trial","html-keyboard-response","82","630694","0.0-3.0-1.38","25","3","
    <div class = 'grid-container'>
        <div class='header-text'> Friends </div>
        <div>
            Jack
            <img width='150' style='border:2px black solid;' src='stims/img/CFD-WM-200-034-N.jpg'>
        </div>
        <div> &nbsp; + &nbsp; </div>
        <div>
            Ava
            <img width='150' style='border:2px black solid;' src='stims/img/CFD-BF-242-154-N.jpg'>
        </div>
        <div class='header-text'> &nbsp; </div>
    </div>
    ","null","2","true","10","stims/img/CFD-WM-200-034-N.jpg","Jack","12","stims/img/CFD-BF-242-154-N.jpg","Ava","","",""
"","null","fixation","html-keyboard-response","83","631200","0.0-3.0-0.39","25","3","<div style = ""font-size:60px;""> + </div>","null","","","","","","","","","","",""
"","null","learning_trial","html-keyboard-response","84","633707","0.0-3.0-1.39","25","3","
    <div class = 'grid-container'>
        <div class='header-text'> Friends </div>
        <div>
            Elijah
            <img width='150' style='border:2px black solid;' src='stims/img/CFD-BM-210-148-N.jpg'>
        </div>
        <div> &nbsp; + &nbsp; </div>
        <div>
            Emma
            <img width='150' style='border:2px black solid;' src='stims/img/CFD-AF-203-077-N.jpg'>
        </div>
        <div class='header-text'> &nbsp; </div>
    </div>
    ","null","2","true","4","stims/img/CFD-BM-210-148-N.jpg","Elijah","6","stims/img/CFD-AF-203-077-N.jpg","Emma","","",""
"","null","fixation","html-keyboard-response","85","634213","0.0-3.0-0.40","25","3","<div style = ""font-size:60px;""> + </div>","null","","","","","","","","","","",""
"","null","learning_trial","html-keyboard-response","86","636720","0.0-3.0-1.40","25","3","
    <div class = 'grid-container'>
        <div class='header-text'> Friends </div>
        <div>
            Aaron
            <img width='150' style='border:2px black solid;' src='stims/img/CFD-AM-201-076-N.jpg'>
        </div>
        <div> &nbsp; + &nbsp; </div>
        <div>
            Brandon
            <img width='150' style='border:2px black solid;' src='stims/img/CFD-BM-226-276-N.jpg'>
        </div>
        <div class='header-text'> &nbsp; </div>
    </div>
    ","null","2","true","9","stims/img/CFD-AM-201-076-N.jpg","Aaron","11","stims/img/CFD-BM-226-276-N.jpg","Brandon","","",""
"","null","fixation","html-keyboard-response","87","637221","0.0-3.0-0.41","25","3","<div style = ""font-size:60px;""> + </div>","null","","","","","","","","","","",""
"","null","learning_trial","html-keyboard-response","88","639727","0.0-3.0-1.41","25","3","
    <div class = 'grid-container'>
        <div class='header-text'> Friends </div>
        <div>
            Angelina
            <img width='150' style='border:2px black solid;' src='stims/img/CFD-LF-244-096-N.jpg'>
        </div>
        <div> &nbsp; + &nbsp; </div>
        <div>
            Camila
            <img width='150' style='border:2px black solid;' src='stims/img/CFD-LF-213-079-N.jpg'>
        </div>
        <div class='header-text'> &nbsp; </div>
    </div>
    ","null","2","true","3","stims/img/CFD-LF-244-096-N.jpg","Angelina","5","stims/img/CFD-LF-213-079-N.jpg","Camila","","",""
"","null","fixation","html-keyboard-response","89","640229","0.0-3.0-0.42","25","3","<div style = ""font-size:60px;""> + </div>","null","","","","","","","","","","",""
"","null","learning_trial","html-keyboard-response","90","642736","0.0-3.0-1.42","25","3","
    <div class = 'grid-container'>
        <div class='header-text'> Friends </div>
        <div>
            Ava
            <img width='150' style='border:2px black solid;' src='stims/img/CFD-BF-242-154-N.jpg'>
        </div>
        <div> &nbsp; + &nbsp; </div>
        <div>
            Iris
            <img width='150' style='border:2px black solid;' src='stims/img/CFD-AF-227-207-N.jpg'>
        </div>
        <div class='header-text'> &nbsp; </div>
    </div>
    ","null","2","true","12","stims/img/CFD-BF-242-154-N.jpg","Ava","13","stims/img/CFD-AF-227-207-N.jpg","Iris","","",""
"","null","fixation","html-keyboard-response","91","643236","0.0-3.0-0.43","25","3","<div style = ""font-size:60px;""> + </div>","null","","","","","","","","","","",""
"","null","learning_trial","html-keyboard-response","92","645743","0.0-3.0-1.43","25","3","
    <div class = 'grid-container'>
        <div class='header-text'> Friends </div>
        <div>
            Christopher
            <img width='150' style='border:2px black solid;' src='stims/img/CFD-LM-207-004-N.jpg'>
        </div>
        <div> &nbsp; + &nbsp; </div>
        <div>
            Anthony
            <img width='150' style='border:2px black solid;' src='stims/img/CFD-LM-214-165-N.jpg'>
        </div>
        <div class='header-text'> &nbsp; </div>
    </div>
    ","null","2","false","1","stims/img/CFD-LM-214-165-N.jpg","Anthony","8","stims/img/CFD-LM-207-004-N.jpg","Christopher","","",""
"","null","fixation","html-keyboard-response","93","646250","0.0-3.0-0.44","25","3","<div style = ""font-size:60px;""> + </div>","null","","","","","","","","","","",""
"","null","learning_trial","html-keyboard-response","94","648755","0.0-3.0-1.44","25","3","
    <div class = 'grid-container'>
        <div class='header-text'> Friends </div>
        <div>
            Sophia
            <img width='150' style='border:2px black solid;' src='stims/img/CFD-WF-202-056-N.jpg'>
        </div>
        <div> &nbsp; + &nbsp; </div>
        <div>
            Anthony
            <img width='150' style='border:2px black solid;' src='stims/img/CFD-LM-214-165-N.jpg'>
        </div>
        <div class='header-text'> &nbsp; </div>
    </div>
    ","null","2","false","1","stims/img/CFD-LM-214-165-N.jpg","Anthony","2","stims/img/CFD-WF-202-056-N.jpg","Sophia","","",""
"","null","fixation","html-keyboard-response","95","649261","0.0-3.0-0.45","25","3","<div style = ""font-size:60px;""> + </div>","null","","","","","","","","","","",""
"","null","learning_trial","html-keyboard-response","96","651764","0.0-3.0-1.45","25","3","
    <div class = 'grid-container'>
        <div class='header-text'> Friends </div>
        <div>
            Christopher
            <img width='150' style='border:2px black solid;' src='stims/img/CFD-LM-207-004-N.jpg'>
        </div>
        <div> &nbsp; + &nbsp; </div>
        <div>
            Jack
            <img width='150' style='border:2px black solid;' src='stims/img/CFD-WM-200-034-N.jpg'>
        </div>
        <div class='header-text'> &nbsp; </div>
    </div>
    ","null","2","true","8","stims/img/CFD-LM-207-004-N.jpg","Christopher","10","stims/img/CFD-WM-200-034-N.jpg","Jack","","",""
"","null","fixation","html-keyboard-response","97","652271","0.0-3.0-0.46","25","3","<div style = ""font-size:60px;""> + </div>","null","","","","","","","","","","",""
"","null","learning_trial","html-keyboard-response","98","654777","0.0-3.0-1.46","25","3","
    <div class = 'grid-container'>
        <div class='header-text'> Friends </div>
        <div>
            Brandon
            <img width='150' style='border:2px black solid;' src='stims/img/CFD-BM-226-276-N.jpg'>
        </div>
        <div> &nbsp; + &nbsp; </div>
        <div>
            Ava
            <img width='150' style='border:2px black solid;' src='stims/img/CFD-BF-242-154-N.jpg'>
        </div>
        <div class='header-text'> &nbsp; </div>
    </div>
    ","null","2","true","11","stims/img/CFD-BM-226-276-N.jpg","Brandon","12","stims/img/CFD-BF-242-154-N.jpg","Ava","","",""
"","null","fixation","html-keyboard-response","99","655285","0.0-3.0-0.47","25","3","<div style = ""font-size:60px;""> + </div>","null","","","","","","","","","","",""
"","null","learning_trial","html-keyboard-response","100","657792","0.0-3.0-1.47","25","3","
    <div class = 'grid-container'>
        <div class='header-text'> Friends </div>
        <div>
            Camila
            <img width='150' style='border:2px black solid;' src='stims/img/CFD-LF-213-079-N.jpg'>
        </div>
        <div> &nbsp; + &nbsp; </div>
        <div>
            Kyle
            <img width='150' style='border:2px black solid;' src='stims/img/CFD-AM-220-134-N.jpg'>
        </div>
        <div class='header-text'> &nbsp; </div>
    </div>
    ","null","2","true","5","stims/img/CFD-LF-213-079-N.jpg","Camila","7","stims/img/CFD-AM-220-134-N.jpg","Kyle","","",""
"","null","fixation","html-keyboard-response","101","658298","0.0-3.0-0.48","25","3","<div style = ""font-size:60px;""> + </div>","null","","","","","","","","","","",""
"","null","learning_trial","html-keyboard-response","102","660805","0.0-3.0-1.48","25","3","
    <div class = 'grid-container'>
        <div class='header-text'> Friends </div>
        <div>
            Kyle
            <img width='150' style='border:2px black solid;' src='stims/img/CFD-AM-220-134-N.jpg'>
        </div>
        <div> &nbsp; + &nbsp; </div>
        <div>
            Emma
            <img width='150' style='border:2px black solid;' src='stims/img/CFD-AF-203-077-N.jpg'>
        </div>
        <div class='header-text'> &nbsp; </div>
    </div>
    ","null","2","false","6","stims/img/CFD-AF-203-077-N.jpg","Emma","7","stims/img/CFD-AM-220-134-N.jpg","Kyle","","",""
"","null","fixation","html-keyboard-response","103","661311","0.0-3.0-0.49","25","3","<div style = ""font-size:60px;""> + </div>","null","","","","","","","","","","",""
"","null","learning_trial","html-keyboard-response","104","663819","0.0-3.0-1.49","25","3","
    <div class = 'grid-container'>
        <div class='header-text'> Friends </div>
        <div>
            Sophia
            <img width='150' style='border:2px black solid;' src='stims/img/CFD-WF-202-056-N.jpg'>
        </div>
        <div> &nbsp; + &nbsp; </div>
        <div>
            Elijah
            <img width='150' style='border:2px black solid;' src='stims/img/CFD-BM-210-148-N.jpg'>
        </div>
        <div class='header-text'> &nbsp; </div>
    </div>
    ","null","2","true","2","stims/img/CFD-WF-202-056-N.jpg","Sophia","4","stims/img/CFD-BM-210-148-N.jpg","Elijah","","",""
"","null","fixation","html-keyboard-response","105","664325","0.0-3.0-0.50","25","3","<div style = ""font-size:60px;""> + </div>","null","","","","","","","","","","",""
"","null","learning_trial","html-keyboard-response","106","666832","0.0-3.0-1.50","25","3","
    <div class = 'grid-container'>
        <div class='header-text'> Friends </div>
        <div>
            Sophia
            <img width='150' style='border:2px black solid;' src='stims/img/CFD-WF-202-056-N.jpg'>
        </div>
        <div> &nbsp; + &nbsp; </div>
        <div>
            Angelina
            <img width='150' style='border:2px black solid;' src='stims/img/CFD-LF-244-096-N.jpg'>
        </div>
        <div class='header-text'> &nbsp; </div>
    </div>
    ","null","2","true","2","stims/img/CFD-WF-202-056-N.jpg","Sophia","3","stims/img/CFD-LF-244-096-N.jpg","Angelina","","",""
"","8073","break","html-keyboard-response","107","674905","0.0-3.0-2.50-0.50","25","3","If you'd like to take a break before continuing, 
    please do so now. <p>To continue, please press the spacebar.</p>"," ","","","","","","","","","","",""
"","null","fixation","html-keyboard-response","108","675411","0.0-3.0-0.51","25","3","<div style = ""font-size:60px;""> + </div>","null","","","","","","","","","","",""
"","null","learning_trial","html-keyboard-response","109","677914","0.0-3.0-1.51","25","3","
    <div class = 'grid-container'>
        <div class='header-text'> Friends </div>
        <div>
            Sophia
            <img width='150' style='border:2px black solid;' src='stims/img/CFD-WF-202-056-N.jpg'>
        </div>
        <div> &nbsp; + &nbsp; </div>
        <div>
            Anthony
            <img width='150' style='border:2px black solid;' src='stims/img/CFD-LM-214-165-N.jpg'>
        </div>
        <div class='header-text'> &nbsp; </div>
    </div>
    ","null","3","false","1","stims/img/CFD-LM-214-165-N.jpg","Anthony","2","stims/img/CFD-WF-202-056-N.jpg","Sophia","","",""
"","null","fixation","html-keyboard-response","110","678420","0.0-3.0-0.52","25","3","<div style = ""font-size:60px;""> + </div>","null","","","","","","","","","","",""
"","null","learning_trial","html-keyboard-response","111","680927","0.0-3.0-1.52","25","3","
    <div class = 'grid-container'>
        <div class='header-text'> Friends </div>
        <div>
            Angelina
            <img width='150' style='border:2px black solid;' src='stims/img/CFD-LF-244-096-N.jpg'>
        </div>
        <div> &nbsp; + &nbsp; </div>
        <div>
            Camila
            <img width='150' style='border:2px black solid;' src='stims/img/CFD-LF-213-079-N.jpg'>
        </div>
        <div class='header-text'> &nbsp; </div>
    </div>
    ","null","3","true","3","stims/img/CFD-LF-244-096-N.jpg","Angelina","5","stims/img/CFD-LF-213-079-N.jpg","Camila","","",""
"","null","fixation","html-keyboard-response","112","681433","0.0-3.0-0.53","25","3","<div style = ""font-size:60px;""> + </div>","null","","","","","","","","","","",""
"","null","learning_trial","html-keyboard-response","113","683941","0.0-3.0-1.53","25","3","
    <div class = 'grid-container'>
        <div class='header-text'> Friends </div>
        <div>
            Iris
            <img width='150' style='border:2px black solid;' src='stims/img/CFD-AF-227-207-N.jpg'>
        </div>
        <div> &nbsp; + &nbsp; </div>
        <div>
            Brandon
            <img width='150' style='border:2px black solid;' src='stims/img/CFD-BM-226-276-N.jpg'>
        </div>
        <div class='header-text'> &nbsp; </div>
    </div>
    ","null","3","false","11","stims/img/CFD-BM-226-276-N.jpg","Brandon","13","stims/img/CFD-AF-227-207-N.jpg","Iris","","",""
"","null","fixation","html-keyboard-response","114","684446","0.0-3.0-0.54","25","3","<div style = ""font-size:60px;""> + </div>","null","","","","","","","","","","",""
"","null","learning_trial","html-keyboard-response","115","686954","0.0-3.0-1.54","25","3","
    <div class = 'grid-container'>
        <div class='header-text'> Friends </div>
        <div>
            Christopher
            <img width='150' style='border:2px black solid;' src='stims/img/CFD-LM-207-004-N.jpg'>
        </div>
        <div> &nbsp; + &nbsp; </div>
        <div>
            Aaron
            <img width='150' style='border:2px black solid;' src='stims/img/CFD-AM-201-076-N.jpg'>
        </div>
        <div class='header-text'> &nbsp; </div>
    </div>
    ","null","3","true","8","stims/img/CFD-LM-207-004-N.jpg","Christopher","9","stims/img/CFD-AM-201-076-N.jpg","Aaron","","",""
"","null","fixation","html-keyboard-response","116","687460","0.0-3.0-0.55","25","3","<div style = ""font-size:60px;""> + </div>","null","","","","","","","","","","",""
"","null","learning_trial","html-keyboard-response","117","689967","0.0-3.0-1.55","25","3","
    <div class = 'grid-container'>
        <div class='header-text'> Friends </div>
        <div>
            Kyle
            <img width='150' style='border:2px black solid;' src='stims/img/CFD-AM-220-134-N.jpg'>
        </div>
        <div> &nbsp; + &nbsp; </div>
        <div>
            Emma
            <img width='150' style='border:2px black solid;' src='stims/img/CFD-AF-203-077-N.jpg'>
        </div>
        <div class='header-text'> &nbsp; </div>
    </div>
    ","null","3","false","6","stims/img/CFD-AF-203-077-N.jpg","Emma","7","stims/img/CFD-AM-220-134-N.jpg","Kyle","","",""
"","null","fixation","html-keyboard-response","118","690469","0.0-3.0-0.56","25","3","<div style = ""font-size:60px;""> + </div>","null","","","","","","","","","","",""
"","null","learning_trial","html-keyboard-response","119","692975","0.0-3.0-1.56","25","3","
    <div class = 'grid-container'>
        <div class='header-text'> Friends </div>
        <div>
            Jack
            <img width='150' style='border:2px black solid;' src='stims/img/CFD-WM-200-034-N.jpg'>
        </div>
        <div> &nbsp; + &nbsp; </div>
        <div>
            Christopher
            <img width='150' style='border:2px black solid;' src='stims/img/CFD-LM-207-004-N.jpg'>
        </div>
        <div class='header-text'> &nbsp; </div>
    </div>
    ","null","3","false","8","stims/img/CFD-LM-207-004-N.jpg","Christopher","10","stims/img/CFD-WM-200-034-N.jpg","Jack","","",""
"","null","fixation","html-keyboard-response","120","693482","0.0-3.0-0.57","25","3","<div style = ""font-size:60px;""> + </div>","null","","","","","","","","","","",""
"","null","learning_trial","html-keyboard-response","121","695988","0.0-3.0-1.57","25","3","
    <div class = 'grid-container'>
        <div class='header-text'> Friends </div>
        <div>
            Camila
            <img width='150' style='border:2px black solid;' src='stims/img/CFD-LF-213-079-N.jpg'>
        </div>
        <div> &nbsp; + &nbsp; </div>
        <div>
            Kyle
            <img width='150' style='border:2px black solid;' src='stims/img/CFD-AM-220-134-N.jpg'>
        </div>
        <div class='header-text'> &nbsp; </div>
    </div>
    ","null","3","true","5","stims/img/CFD-LF-213-079-N.jpg","Camila","7","stims/img/CFD-AM-220-134-N.jpg","Kyle","","",""
"","null","fixation","html-keyboard-response","122","696494","0.0-3.0-0.58","25","3","<div style = ""font-size:60px;""> + </div>","null","","","","","","","","","","",""
"","null","learning_trial","html-keyboard-response","123","699001","0.0-3.0-1.58","25","3","
    <div class = 'grid-container'>
        <div class='header-text'> Friends </div>
        <div>
            Brandon
            <img width='150' style='border:2px black solid;' src='stims/img/CFD-BM-226-276-N.jpg'>
        </div>
        <div> &nbsp; + &nbsp; </div>
        <div>
            Ava
            <img width='150' style='border:2px black solid;' src='stims/img/CFD-BF-242-154-N.jpg'>
        </div>
        <div class='header-text'> &nbsp; </div>
    </div>
    ","null","3","true","11","stims/img/CFD-BM-226-276-N.jpg","Brandon","12","stims/img/CFD-BF-242-154-N.jpg","Ava","","",""
"","null","fixation","html-keyboard-response","124","699509","0.0-3.0-0.59","25","3","<div style = ""font-size:60px;""> + </div>","null","","","","","","","","","","",""
"","null","learning_trial","html-keyboard-response","125","702015","0.0-3.0-1.59","25","3","
    <div class = 'grid-container'>
        <div class='header-text'> Friends </div>
        <div>
            Camila
            <img width='150' style='border:2px black solid;' src='stims/img/CFD-LF-213-079-N.jpg'>
        </div>
        <div> &nbsp; + &nbsp; </div>
        <div>
            Elijah
            <img width='150' style='border:2px black solid;' src='stims/img/CFD-BM-210-148-N.jpg'>
        </div>
        <div class='header-text'> &nbsp; </div>
    </div>
    ","null","3","false","4","stims/img/CFD-BM-210-148-N.jpg","Elijah","5","stims/img/CFD-LF-213-079-N.jpg","Camila","","",""
"","null","fixation","html-keyboard-response","126","702522","0.0-3.0-0.60","25","3","<div style = ""font-size:60px;""> + </div>","null","","","","","","","","","","",""
"","null","learning_trial","html-keyboard-response","127","705028","0.0-3.0-1.60","25","3","
    <div class = 'grid-container'>
        <div class='header-text'> Friends </div>
        <div>
            Ava
            <img width='150' style='border:2px black solid;' src='stims/img/CFD-BF-242-154-N.jpg'>
        </div>
        <div> &nbsp; + &nbsp; </div>
        <div>
            Jack
            <img width='150' style='border:2px black solid;' src='stims/img/CFD-WM-200-034-N.jpg'>
        </div>
        <div class='header-text'> &nbsp; </div>
    </div>
    ","null","3","false","10","stims/img/CFD-WM-200-034-N.jpg","Jack","12","stims/img/CFD-BF-242-154-N.jpg","Ava","","",""
"","null","fixation","html-keyboard-response","128","705530","0.0-3.0-0.61","25","3","<div style = ""font-size:60px;""> + </div>","null","","","","","","","","","","",""
"","null","learning_trial","html-keyboard-response","129","708037","0.0-3.0-1.61","25","3","
    <div class = 'grid-container'>
        <div class='header-text'> Friends </div>
        <div>
            Emma
            <img width='150' style='border:2px black solid;' src='stims/img/CFD-AF-203-077-N.jpg'>
        </div>
        <div> &nbsp; + &nbsp; </div>
        <div>
            Elijah
            <img width='150' style='border:2px black solid;' src='stims/img/CFD-BM-210-148-N.jpg'>
        </div>
        <div class='header-text'> &nbsp; </div>
    </div>
    ","null","3","false","4","stims/img/CFD-BM-210-148-N.jpg","Elijah","6","stims/img/CFD-AF-203-077-N.jpg","Emma","","",""
"","null","fixation","html-keyboard-response","130","708538","0.0-3.0-0.62","25","3","<div style = ""font-size:60px;""> + </div>","null","","","","","","","","","","",""
"","null","learning_trial","html-keyboard-response","131","711045","0.0-3.0-1.62","25","3","
    <div class = 'grid-container'>
        <div class='header-text'> Friends </div>
        <div>
            Brandon
            <img width='150' style='border:2px black solid;' src='stims/img/CFD-BM-226-276-N.jpg'>
        </div>
        <div> &nbsp; + &nbsp; </div>
        <div>
            Aaron
            <img width='150' style='border:2px black solid;' src='stims/img/CFD-AM-201-076-N.jpg'>
        </div>
        <div class='header-text'> &nbsp; </div>
    </div>
    ","null","3","false","9","stims/img/CFD-AM-201-076-N.jpg","Aaron","11","stims/img/CFD-BM-226-276-N.jpg","Brandon","","",""
"","null","fixation","html-keyboard-response","132","711551","0.0-3.0-0.63","25","3","<div style = ""font-size:60px;""> + </div>","null","","","","","","","","","","",""
"","null","learning_trial","html-keyboard-response","133","714058","0.0-3.0-1.63","25","3","
    <div class = 'grid-container'>
        <div class='header-text'> Friends </div>
        <div>
            Elijah
            <img width='150' style='border:2px black solid;' src='stims/img/CFD-BM-210-148-N.jpg'>
        </div>
        <div> &nbsp; + &nbsp; </div>
        <div>
            Angelina
            <img width='150' style='border:2px black solid;' src='stims/img/CFD-LF-244-096-N.jpg'>
        </div>
        <div class='header-text'> &nbsp; </div>
    </div>
    ","null","3","false","3","stims/img/CFD-LF-244-096-N.jpg","Angelina","4","stims/img/CFD-BM-210-148-N.jpg","Elijah","","",""
"","null","fixation","html-keyboard-response","134","714564","0.0-3.0-0.64","25","3","<div style = ""font-size:60px;""> + </div>","null","","","","","","","","","","",""
"","null","learning_trial","html-keyboard-response","135","717072","0.0-3.0-1.64","25","3","
    <div class = 'grid-container'>
        <div class='header-text'> Friends </div>
        <div>
            Sophia
            <img width='150' style='border:2px black solid;' src='stims/img/CFD-WF-202-056-N.jpg'>
        </div>
        <div> &nbsp; + &nbsp; </div>
        <div>
            Elijah
            <img width='150' style='border:2px black solid;' src='stims/img/CFD-BM-210-148-N.jpg'>
        </div>
        <div class='header-text'> &nbsp; </div>
    </div>
    ","null","3","true","2","stims/img/CFD-WF-202-056-N.jpg","Sophia","4","stims/img/CFD-BM-210-148-N.jpg","Elijah","","",""
"","null","fixation","html-keyboard-response","136","717577","0.0-3.0-0.65","25","3","<div style = ""font-size:60px;""> + </div>","null","","","","","","","","","","",""
"","null","learning_trial","html-keyboard-response","137","720084","0.0-3.0-1.65","25","3","
    <div class = 'grid-container'>
        <div class='header-text'> Friends </div>
        <div>
            Angelina
            <img width='150' style='border:2px black solid;' src='stims/img/CFD-LF-244-096-N.jpg'>
        </div>
        <div> &nbsp; + &nbsp; </div>
        <div>
            Sophia
            <img width='150' style='border:2px black solid;' src='stims/img/CFD-WF-202-056-N.jpg'>
        </div>
        <div class='header-text'> &nbsp; </div>
    </div>
    ","null","3","false","2","stims/img/CFD-WF-202-056-N.jpg","Sophia","3","stims/img/CFD-LF-244-096-N.jpg","Angelina","","",""
"","null","fixation","html-keyboard-response","138","720590","0.0-3.0-0.66","25","3","<div style = ""font-size:60px;""> + </div>","null","","","","","","","","","","",""
"","null","learning_trial","html-keyboard-response","139","723098","0.0-3.0-1.66","25","3","
    <div class = 'grid-container'>
        <div class='header-text'> Friends </div>
        <div>
            Iris
            <img width='150' style='border:2px black solid;' src='stims/img/CFD-AF-227-207-N.jpg'>
        </div>
        <div> &nbsp; + &nbsp; </div>
        <div>
            Ava
            <img width='150' style='border:2px black solid;' src='stims/img/CFD-BF-242-154-N.jpg'>
        </div>
        <div class='header-text'> &nbsp; </div>
    </div>
    ","null","3","false","12","stims/img/CFD-BF-242-154-N.jpg","Ava","13","stims/img/CFD-AF-227-207-N.jpg","Iris","","",""
"","null","fixation","html-keyboard-response","140","723604","0.0-3.0-0.67","25","3","<div style = ""font-size:60px;""> + </div>","null","","","","","","","","","","",""
"","null","learning_trial","html-keyboard-response","141","726110","0.0-3.0-1.67","25","3","
    <div class = 'grid-container'>
        <div class='header-text'> Friends </div>
        <div>
            Christopher
            <img width='150' style='border:2px black solid;' src='stims/img/CFD-LM-207-004-N.jpg'>
        </div>
        <div> &nbsp; + &nbsp; </div>
        <div>
            Anthony
            <img width='150' style='border:2px black solid;' src='stims/img/CFD-LM-214-165-N.jpg'>
        </div>
        <div class='header-text'> &nbsp; </div>
    </div>
    ","null","3","false","1","stims/img/CFD-LM-214-165-N.jpg","Anthony","8","stims/img/CFD-LM-207-004-N.jpg","Christopher","","",""
"","4015","break","html-keyboard-response","142","730126","0.0-3.0-2.67-0.67","25","3","If you'd like to take a break before continuing, 
    please do so now. <p>To continue, please press the spacebar.</p>"," ","","","","","","","","","","",""
"","null","fixation","html-keyboard-response","143","730632","0.0-3.0-0.68","25","3","<div style = ""font-size:60px;""> + </div>","null","","","","","","","","","","",""
"","null","learning_trial","html-keyboard-response","144","733135","0.0-3.0-1.68","25","3","
    <div class = 'grid-container'>
        <div class='header-text'> Friends </div>
        <div>
            Christopher
            <img width='150' style='border:2px black solid;' src='stims/img/CFD-LM-207-004-N.jpg'>
        </div>
        <div> &nbsp; + &nbsp; </div>
        <div>
            Anthony
            <img width='150' style='border:2px black solid;' src='stims/img/CFD-LM-214-165-N.jpg'>
        </div>
        <div class='header-text'> &nbsp; </div>
    </div>
    ","null","4","false","1","stims/img/CFD-LM-214-165-N.jpg","Anthony","8","stims/img/CFD-LM-207-004-N.jpg","Christopher","","",""
"","null","fixation","html-keyboard-response","145","733642","0.0-3.0-0.69","25","3","<div style = ""font-size:60px;""> + </div>","null","","","","","","","","","","",""
"","null","learning_trial","html-keyboard-response","146","736148","0.0-3.0-1.69","25","3","
    <div class = 'grid-container'>
        <div class='header-text'> Friends </div>
        <div>
            Angelina
            <img width='150' style='border:2px black solid;' src='stims/img/CFD-LF-244-096-N.jpg'>
        </div>
        <div> &nbsp; + &nbsp; </div>
        <div>
            Camila
            <img width='150' style='border:2px black solid;' src='stims/img/CFD-LF-213-079-N.jpg'>
        </div>
        <div class='header-text'> &nbsp; </div>
    </div>
    ","null","4","true","3","stims/img/CFD-LF-244-096-N.jpg","Angelina","5","stims/img/CFD-LF-213-079-N.jpg","Camila","","",""
"","null","fixation","html-keyboard-response","147","736652","0.0-3.0-0.70","25","3","<div style = ""font-size:60px;""> + </div>","null","","","","","","","","","","",""
"","null","learning_trial","html-keyboard-response","148","739157","0.0-3.0-1.70","25","3","
    <div class = 'grid-container'>
        <div class='header-text'> Friends </div>
        <div>
            Jack
            <img width='150' style='border:2px black solid;' src='stims/img/CFD-WM-200-034-N.jpg'>
        </div>
        <div> &nbsp; + &nbsp; </div>
        <div>
            Ava
            <img width='150' style='border:2px black solid;' src='stims/img/CFD-BF-242-154-N.jpg'>
        </div>
        <div class='header-text'> &nbsp; </div>
    </div>
    ","null","4","true","10","stims/img/CFD-WM-200-034-N.jpg","Jack","12","stims/img/CFD-BF-242-154-N.jpg","Ava","","",""
"","null","fixation","html-keyboard-response","149","739664","0.0-3.0-0.71","25","3","<div style = ""font-size:60px;""> + </div>","null","","","","","","","","","","",""
"","null","learning_trial","html-keyboard-response","150","742169","0.0-3.0-1.71","25","3","
    <div class = 'grid-container'>
        <div class='header-text'> Friends </div>
        <div>
            Camila
            <img width='150' style='border:2px black solid;' src='stims/img/CFD-LF-213-079-N.jpg'>
        </div>
        <div> &nbsp; + &nbsp; </div>
        <div>
            Elijah
            <img width='150' style='border:2px black solid;' src='stims/img/CFD-BM-210-148-N.jpg'>
        </div>
        <div class='header-text'> &nbsp; </div>
    </div>
    ","null","4","false","4","stims/img/CFD-BM-210-148-N.jpg","Elijah","5","stims/img/CFD-LF-213-079-N.jpg","Camila","","",""
"","null","fixation","html-keyboard-response","151","742672","0.0-3.0-0.72","25","3","<div style = ""font-size:60px;""> + </div>","null","","","","","","","","","","",""
"","null","learning_trial","html-keyboard-response","152","745177","0.0-3.0-1.72","25","3","
    <div class = 'grid-container'>
        <div class='header-text'> Friends </div>
        <div>
            Elijah
            <img width='150' style='border:2px black solid;' src='stims/img/CFD-BM-210-148-N.jpg'>
        </div>
        <div> &nbsp; + &nbsp; </div>
        <div>
            Sophia
            <img width='150' style='border:2px black solid;' src='stims/img/CFD-WF-202-056-N.jpg'>
        </div>
        <div class='header-text'> &nbsp; </div>
    </div>
    ","null","4","false","2","stims/img/CFD-WF-202-056-N.jpg","Sophia","4","stims/img/CFD-BM-210-148-N.jpg","Elijah","","",""
"","null","fixation","html-keyboard-response","153","745680","0.0-3.0-0.73","25","3","<div style = ""font-size:60px;""> + </div>","null","","","","","","","","","","",""
"","null","learning_trial","html-keyboard-response","154","748185","0.0-3.0-1.73","25","3","
    <div class = 'grid-container'>
        <div class='header-text'> Friends </div>
        <div>
            Anthony
            <img width='150' style='border:2px black solid;' src='stims/img/CFD-LM-214-165-N.jpg'>
        </div>
        <div> &nbsp; + &nbsp; </div>
        <div>
            Sophia
            <img width='150' style='border:2px black solid;' src='stims/img/CFD-WF-202-056-N.jpg'>
        </div>
        <div class='header-text'> &nbsp; </div>
    </div>
    ","null","4","true","1","stims/img/CFD-LM-214-165-N.jpg","Anthony","2","stims/img/CFD-WF-202-056-N.jpg","Sophia","","",""
"","null","fixation","html-keyboard-response","155","748687","0.0-3.0-0.74","25","3","<div style = ""font-size:60px;""> + </div>","null","","","","","","","","","","",""
"","null","learning_trial","html-keyboard-response","156","751194","0.0-3.0-1.74","25","3","
    <div class = 'grid-container'>
        <div class='header-text'> Friends </div>
        <div>
            Iris
            <img width='150' style='border:2px black solid;' src='stims/img/CFD-AF-227-207-N.jpg'>
        </div>
        <div> &nbsp; + &nbsp; </div>
        <div>
            Brandon
            <img width='150' style='border:2px black solid;' src='stims/img/CFD-BM-226-276-N.jpg'>
        </div>
        <div class='header-text'> &nbsp; </div>
    </div>
    ","null","4","false","11","stims/img/CFD-BM-226-276-N.jpg","Brandon","13","stims/img/CFD-AF-227-207-N.jpg","Iris","","",""
"","null","fixation","html-keyboard-response","157","751700","0.0-3.0-0.75","25","3","<div style = ""font-size:60px;""> + </div>","null","","","","","","","","","","",""
"","null","learning_trial","html-keyboard-response","158","754208","0.0-3.0-1.75","25","3","
    <div class = 'grid-container'>
        <div class='header-text'> Friends </div>
        <div>
            Elijah
            <img width='150' style='border:2px black solid;' src='stims/img/CFD-BM-210-148-N.jpg'>
        </div>
        <div> &nbsp; + &nbsp; </div>
        <div>
            Emma
            <img width='150' style='border:2px black solid;' src='stims/img/CFD-AF-203-077-N.jpg'>
        </div>
        <div class='header-text'> &nbsp; </div>
    </div>
    ","null","4","true","4","stims/img/CFD-BM-210-148-N.jpg","Elijah","6","stims/img/CFD-AF-203-077-N.jpg","Emma","","",""
"","null","fixation","html-keyboard-response","159","754713","0.0-3.0-0.76","25","3","<div style = ""font-size:60px;""> + </div>","null","","","","","","","","","","",""
"","null","learning_trial","html-keyboard-response","160","757221","0.0-3.0-1.76","25","3","
    <div class = 'grid-container'>
        <div class='header-text'> Friends </div>
        <div>
            Sophia
            <img width='150' style='border:2px black solid;' src='stims/img/CFD-WF-202-056-N.jpg'>
        </div>
        <div> &nbsp; + &nbsp; </div>
        <div>
            Angelina
            <img width='150' style='border:2px black solid;' src='stims/img/CFD-LF-244-096-N.jpg'>
        </div>
        <div class='header-text'> &nbsp; </div>
    </div>
    ","null","4","true","2","stims/img/CFD-WF-202-056-N.jpg","Sophia","3","stims/img/CFD-LF-244-096-N.jpg","Angelina","","",""
"","null","fixation","html-keyboard-response","161","757727","0.0-3.0-0.77","25","3","<div style = ""font-size:60px;""> + </div>","null","","","","","","","","","","",""
"","null","learning_trial","html-keyboard-response","162","760234","0.0-3.0-1.77","25","3","
    <div class = 'grid-container'>
        <div class='header-text'> Friends </div>
        <div>
            Kyle
            <img width='150' style='border:2px black solid;' src='stims/img/CFD-AM-220-134-N.jpg'>
        </div>
        <div> &nbsp; + &nbsp; </div>
        <div>
            Camila
            <img width='150' style='border:2px black solid;' src='stims/img/CFD-LF-213-079-N.jpg'>
        </div>
        <div class='header-text'> &nbsp; </div>
    </div>
    ","null","4","false","5","stims/img/CFD-LF-213-079-N.jpg","Camila","7","stims/img/CFD-AM-220-134-N.jpg","Kyle","","",""
"","null","fixation","html-keyboard-response","163","760740","0.0-3.0-0.78","25","3","<div style = ""font-size:60px;""> + </div>","null","","","","","","","","","","",""
"","null","learning_trial","html-keyboard-response","164","763246","0.0-3.0-1.78","25","3","
    <div class = 'grid-container'>
        <div class='header-text'> Friends </div>
        <div>
            Christopher
            <img width='150' style='border:2px black solid;' src='stims/img/CFD-LM-207-004-N.jpg'>
        </div>
        <div> &nbsp; + &nbsp; </div>
        <div>
            Jack
            <img width='150' style='border:2px black solid;' src='stims/img/CFD-WM-200-034-N.jpg'>
        </div>
        <div class='header-text'> &nbsp; </div>
    </div>
    ","null","4","true","8","stims/img/CFD-LM-207-004-N.jpg","Christopher","10","stims/img/CFD-WM-200-034-N.jpg","Jack","","",""
"","null","fixation","html-keyboard-response","165","763753","0.0-3.0-0.79","25","3","<div style = ""font-size:60px;""> + </div>","null","","","","","","","","","","",""
"","null","learning_trial","html-keyboard-response","166","766260","0.0-3.0-1.79","25","3","
    <div class = 'grid-container'>
        <div class='header-text'> Friends </div>
        <div>
            Aaron
            <img width='150' style='border:2px black solid;' src='stims/img/CFD-AM-201-076-N.jpg'>
        </div>
        <div> &nbsp; + &nbsp; </div>
        <div>
            Brandon
            <img width='150' style='border:2px black solid;' src='stims/img/CFD-BM-226-276-N.jpg'>
        </div>
        <div class='header-text'> &nbsp; </div>
    </div>
    ","null","4","true","9","stims/img/CFD-AM-201-076-N.jpg","Aaron","11","stims/img/CFD-BM-226-276-N.jpg","Brandon","","",""
"","null","fixation","html-keyboard-response","167","766767","0.0-3.0-0.80","25","3","<div style = ""font-size:60px;""> + </div>","null","","","","","","","","","","",""
"","null","learning_trial","html-keyboard-response","168","769273","0.0-3.0-1.80","25","3","
    <div class = 'grid-container'>
        <div class='header-text'> Friends </div>
        <div>
            Aaron
            <img width='150' style='border:2px black solid;' src='stims/img/CFD-AM-201-076-N.jpg'>
        </div>
        <div> &nbsp; + &nbsp; </div>
        <div>
            Christopher
            <img width='150' style='border:2px black solid;' src='stims/img/CFD-LM-207-004-N.jpg'>
        </div>
        <div class='header-text'> &nbsp; </div>
    </div>
    ","null","4","false","8","stims/img/CFD-LM-207-004-N.jpg","Christopher","9","stims/img/CFD-AM-201-076-N.jpg","Aaron","","",""
"","null","fixation","html-keyboard-response","169","769780","0.0-3.0-0.81","25","3","<div style = ""font-size:60px;""> + </div>","null","","","","","","","","","","",""
"","null","learning_trial","html-keyboard-response","170","772288","0.0-3.0-1.81","25","3","
    <div class = 'grid-container'>
        <div class='header-text'> Friends </div>
        <div>
            Ava
            <img width='150' style='border:2px black solid;' src='stims/img/CFD-BF-242-154-N.jpg'>
        </div>
        <div> &nbsp; + &nbsp; </div>
        <div>
            Brandon
            <img width='150' style='border:2px black solid;' src='stims/img/CFD-BM-226-276-N.jpg'>
        </div>
        <div class='header-text'> &nbsp; </div>
    </div>
    ","null","4","false","11","stims/img/CFD-BM-226-276-N.jpg","Brandon","12","stims/img/CFD-BF-242-154-N.jpg","Ava","","",""
"","null","fixation","html-keyboard-response","171","772792","0.0-3.0-0.82","25","3","<div style = ""font-size:60px;""> + </div>","null","","","","","","","","","","",""
"","null","learning_trial","html-keyboard-response","172","775295","0.0-3.0-1.82","25","3","
    <div class = 'grid-container'>
        <div class='header-text'> Friends </div>
        <div>
            Ava
            <img width='150' style='border:2px black solid;' src='stims/img/CFD-BF-242-154-N.jpg'>
        </div>
        <div> &nbsp; + &nbsp; </div>
        <div>
            Iris
            <img width='150' style='border:2px black solid;' src='stims/img/CFD-AF-227-207-N.jpg'>
        </div>
        <div class='header-text'> &nbsp; </div>
    </div>
    ","null","4","true","12","stims/img/CFD-BF-242-154-N.jpg","Ava","13","stims/img/CFD-AF-227-207-N.jpg","Iris","","",""
"","null","fixation","html-keyboard-response","173","775801","0.0-3.0-0.83","25","3","<div style = ""font-size:60px;""> + </div>","null","","","","","","","","","","",""
"","null","learning_trial","html-keyboard-response","174","778308","0.0-3.0-1.83","25","3","
    <div class = 'grid-container'>
        <div class='header-text'> Friends </div>
        <div>
            Emma
            <img width='150' style='border:2px black solid;' src='stims/img/CFD-AF-203-077-N.jpg'>
        </div>
        <div> &nbsp; + &nbsp; </div>
        <div>
            Kyle
            <img width='150' style='border:2px black solid;' src='stims/img/CFD-AM-220-134-N.jpg'>
        </div>
        <div class='header-text'> &nbsp; </div>
    </div>
    ","null","4","true","6","stims/img/CFD-AF-203-077-N.jpg","Emma","7","stims/img/CFD-AM-220-134-N.jpg","Kyle","","",""
"","null","fixation","html-keyboard-response","175","778814","0.0-3.0-0.84","25","3","<div style = ""font-size:60px;""> + </div>","null","","","","","","","","","","",""
"","null","learning_trial","html-keyboard-response","176","781322","0.0-3.0-1.84","25","3","
    <div class = 'grid-container'>
        <div class='header-text'> Friends </div>
        <div>
            Angelina
            <img width='150' style='border:2px black solid;' src='stims/img/CFD-LF-244-096-N.jpg'>
        </div>
        <div> &nbsp; + &nbsp; </div>
        <div>
            Elijah
            <img width='150' style='border:2px black solid;' src='stims/img/CFD-BM-210-148-N.jpg'>
        </div>
        <div class='header-text'> &nbsp; </div>
    </div>
    ","null","4","true","3","stims/img/CFD-LF-244-096-N.jpg","Angelina","4","stims/img/CFD-BM-210-148-N.jpg","Elijah","","",""
"","3031","break","html-keyboard-response","177","784353","0.0-3.0-2.84-0.84","25","3","If you'd like to take a break before continuing, 
    please do so now. <p>To continue, please press the spacebar.</p>"," ","","","","","","","","","","",""
"","null","fixation","html-keyboard-response","178","784859","0.0-3.0-0.85","25","3","<div style = ""font-size:60px;""> + </div>","null","","","","","","","","","","",""
"","null","learning_trial","html-keyboard-response","179","787364","0.0-3.0-1.85","25","3","
    <div class = 'grid-container'>
        <div class='header-text'> Friends </div>
        <div>
            Sophia
            <img width='150' style='border:2px black solid;' src='stims/img/CFD-WF-202-056-N.jpg'>
        </div>
        <div> &nbsp; + &nbsp; </div>
        <div>
            Anthony
            <img width='150' style='border:2px black solid;' src='stims/img/CFD-LM-214-165-N.jpg'>
        </div>
        <div class='header-text'> &nbsp; </div>
    </div>
    ","null","5","false","1","stims/img/CFD-LM-214-165-N.jpg","Anthony","2","stims/img/CFD-WF-202-056-N.jpg","Sophia","","",""
"","null","fixation","html-keyboard-response","180","787871","0.0-3.0-0.86","25","3","<div style = ""font-size:60px;""> + </div>","null","","","","","","","","","","",""
"","null","learning_trial","html-keyboard-response","181","790377","0.0-3.0-1.86","25","3","
    <div class = 'grid-container'>
        <div class='header-text'> Friends </div>
        <div>
            Jack
            <img width='150' style='border:2px black solid;' src='stims/img/CFD-WM-200-034-N.jpg'>
        </div>
        <div> &nbsp; + &nbsp; </div>
        <div>
            Ava
            <img width='150' style='border:2px black solid;' src='stims/img/CFD-BF-242-154-N.jpg'>
        </div>
        <div class='header-text'> &nbsp; </div>
    </div>
    ","null","5","true","10","stims/img/CFD-WM-200-034-N.jpg","Jack","12","stims/img/CFD-BF-242-154-N.jpg","Ava","","",""
"","null","fixation","html-keyboard-response","182","790884","0.0-3.0-0.87","25","3","<div style = ""font-size:60px;""> + </div>","null","","","","","","","","","","",""
"","null","learning_trial","html-keyboard-response","183","793387","0.0-3.0-1.87","25","3","
    <div class = 'grid-container'>
        <div class='header-text'> Friends </div>
        <div>
            Aaron
            <img width='150' style='border:2px black solid;' src='stims/img/CFD-AM-201-076-N.jpg'>
        </div>
        <div> &nbsp; + &nbsp; </div>
        <div>
            Brandon
            <img width='150' style='border:2px black solid;' src='stims/img/CFD-BM-226-276-N.jpg'>
        </div>
        <div class='header-text'> &nbsp; </div>
    </div>
    ","null","5","true","9","stims/img/CFD-AM-201-076-N.jpg","Aaron","11","stims/img/CFD-BM-226-276-N.jpg","Brandon","","",""
"","null","fixation","html-keyboard-response","184","793894","0.0-3.0-0.88","25","3","<div style = ""font-size:60px;""> + </div>","null","","","","","","","","","","",""
"","null","learning_trial","html-keyboard-response","185","796399","0.0-3.0-1.88","25","3","
    <div class = 'grid-container'>
        <div class='header-text'> Friends </div>
        <div>
            Christopher
            <img width='150' style='border:2px black solid;' src='stims/img/CFD-LM-207-004-N.jpg'>
        </div>
        <div> &nbsp; + &nbsp; </div>
        <div>
            Aaron
            <img width='150' style='border:2px black solid;' src='stims/img/CFD-AM-201-076-N.jpg'>
        </div>
        <div class='header-text'> &nbsp; </div>
    </div>
    ","null","5","true","8","stims/img/CFD-LM-207-004-N.jpg","Christopher","9","stims/img/CFD-AM-201-076-N.jpg","Aaron","","",""
"","null","fixation","html-keyboard-response","186","796905","0.0-3.0-0.89","25","3","<div style = ""font-size:60px;""> + </div>","null","","","","","","","","","","",""
"","null","learning_trial","html-keyboard-response","187","799413","0.0-3.0-1.89","25","3","
    <div class = 'grid-container'>
        <div class='header-text'> Friends </div>
        <div>
            Angelina
            <img width='150' style='border:2px black solid;' src='stims/img/CFD-LF-244-096-N.jpg'>
        </div>
        <div> &nbsp; + &nbsp; </div>
        <div>
            Sophia
            <img width='150' style='border:2px black solid;' src='stims/img/CFD-WF-202-056-N.jpg'>
        </div>
        <div class='header-text'> &nbsp; </div>
    </div>
    ","null","5","false","2","stims/img/CFD-WF-202-056-N.jpg","Sophia","3","stims/img/CFD-LF-244-096-N.jpg","Angelina","","",""
"","null","fixation","html-keyboard-response","188","799918","0.0-3.0-0.90","25","3","<div style = ""font-size:60px;""> + </div>","null","","","","","","","","","","",""
"","null","learning_trial","html-keyboard-response","189","802425","0.0-3.0-1.90","25","3","
    <div class = 'grid-container'>
        <div class='header-text'> Friends </div>
        <div>
            Iris
            <img width='150' style='border:2px black solid;' src='stims/img/CFD-AF-227-207-N.jpg'>
        </div>
        <div> &nbsp; + &nbsp; </div>
        <div>
            Brandon
            <img width='150' style='border:2px black solid;' src='stims/img/CFD-BM-226-276-N.jpg'>
        </div>
        <div class='header-text'> &nbsp; </div>
    </div>
    ","null","5","false","11","stims/img/CFD-BM-226-276-N.jpg","Brandon","13","stims/img/CFD-AF-227-207-N.jpg","Iris","","",""
"","null","fixation","html-keyboard-response","190","802932","0.0-3.0-0.91","25","3","<div style = ""font-size:60px;""> + </div>","null","","","","","","","","","","",""
"","null","learning_trial","html-keyboard-response","191","805437","0.0-3.0-1.91","25","3","
    <div class = 'grid-container'>
        <div class='header-text'> Friends </div>
        <div>
            Kyle
            <img width='150' style='border:2px black solid;' src='stims/img/CFD-AM-220-134-N.jpg'>
        </div>
        <div> &nbsp; + &nbsp; </div>
        <div>
            Emma
            <img width='150' style='border:2px black solid;' src='stims/img/CFD-AF-203-077-N.jpg'>
        </div>
        <div class='header-text'> &nbsp; </div>
    </div>
    ","null","5","false","6","stims/img/CFD-AF-203-077-N.jpg","Emma","7","stims/img/CFD-AM-220-134-N.jpg","Kyle","","",""
"","null","fixation","html-keyboard-response","192","805944","0.0-3.0-0.92","25","3","<div style = ""font-size:60px;""> + </div>","null","","","","","","","","","","",""
"","null","learning_trial","html-keyboard-response","193","808450","0.0-3.0-1.92","25","3","
    <div class = 'grid-container'>
        <div class='header-text'> Friends </div>
        <div>
            Christopher
            <img width='150' style='border:2px black solid;' src='stims/img/CFD-LM-207-004-N.jpg'>
        </div>
        <div> &nbsp; + &nbsp; </div>
        <div>
            Anthony
            <img width='150' style='border:2px black solid;' src='stims/img/CFD-LM-214-165-N.jpg'>
        </div>
        <div class='header-text'> &nbsp; </div>
    </div>
    ","null","5","false","1","stims/img/CFD-LM-214-165-N.jpg","Anthony","8","stims/img/CFD-LM-207-004-N.jpg","Christopher","","",""
"","null","fixation","html-keyboard-response","194","808954","0.0-3.0-0.93","25","3","<div style = ""font-size:60px;""> + </div>","null","","","","","","","","","","",""
"","null","learning_trial","html-keyboard-response","195","811460","0.0-3.0-1.93","25","3","
    <div class = 'grid-container'>
        <div class='header-text'> Friends </div>
        <div>
            Angelina
            <img width='150' style='border:2px black solid;' src='stims/img/CFD-LF-244-096-N.jpg'>
        </div>
        <div> &nbsp; + &nbsp; </div>
        <div>
            Elijah
            <img width='150' style='border:2px black solid;' src='stims/img/CFD-BM-210-148-N.jpg'>
        </div>
        <div class='header-text'> &nbsp; </div>
    </div>
    ","null","5","true","3","stims/img/CFD-LF-244-096-N.jpg","Angelina","4","stims/img/CFD-BM-210-148-N.jpg","Elijah","","",""
"","null","fixation","html-keyboard-response","196","811967","0.0-3.0-0.94","25","3","<div style = ""font-size:60px;""> + </div>","null","","","","","","","","","","",""
"","null","learning_trial","html-keyboard-response","197","814474","0.0-3.0-1.94","25","3","
    <div class = 'grid-container'>
        <div class='header-text'> Friends </div>
        <div>
            Sophia
            <img width='150' style='border:2px black solid;' src='stims/img/CFD-WF-202-056-N.jpg'>
        </div>
        <div> &nbsp; + &nbsp; </div>
        <div>
            Elijah
            <img width='150' style='border:2px black solid;' src='stims/img/CFD-BM-210-148-N.jpg'>
        </div>
        <div class='header-text'> &nbsp; </div>
    </div>
    ","null","5","true","2","stims/img/CFD-WF-202-056-N.jpg","Sophia","4","stims/img/CFD-BM-210-148-N.jpg","Elijah","","",""
"","null","fixation","html-keyboard-response","198","814980","0.0-3.0-0.95","25","3","<div style = ""font-size:60px;""> + </div>","null","","","","","","","","","","",""
"","null","learning_trial","html-keyboard-response","199","817487","0.0-3.0-1.95","25","3","
    <div class = 'grid-container'>
        <div class='header-text'> Friends </div>
        <div>
            Camila
            <img width='150' style='border:2px black solid;' src='stims/img/CFD-LF-213-079-N.jpg'>
        </div>
        <div> &nbsp; + &nbsp; </div>
        <div>
            Kyle
            <img width='150' style='border:2px black solid;' src='stims/img/CFD-AM-220-134-N.jpg'>
        </div>
        <div class='header-text'> &nbsp; </div>
    </div>
    ","null","5","true","5","stims/img/CFD-LF-213-079-N.jpg","Camila","7","stims/img/CFD-AM-220-134-N.jpg","Kyle","","",""
"","null","fixation","html-keyboard-response","200","817988","0.0-3.0-0.96","25","3","<div style = ""font-size:60px;""> + </div>","null","","","","","","","","","","",""
"","null","learning_trial","html-keyboard-response","201","820495","0.0-3.0-1.96","25","3","
    <div class = 'grid-container'>
        <div class='header-text'> Friends </div>
        <div>
            Jack
            <img width='150' style='border:2px black solid;' src='stims/img/CFD-WM-200-034-N.jpg'>
        </div>
        <div> &nbsp; + &nbsp; </div>
        <div>
            Christopher
            <img width='150' style='border:2px black solid;' src='stims/img/CFD-LM-207-004-N.jpg'>
        </div>
        <div class='header-text'> &nbsp; </div>
    </div>
    ","null","5","false","8","stims/img/CFD-LM-207-004-N.jpg","Christopher","10","stims/img/CFD-WM-200-034-N.jpg","Jack","","",""
"","null","fixation","html-keyboard-response","202","821001","0.0-3.0-0.97","25","3","<div style = ""font-size:60px;""> + </div>","null","","","","","","","","","","",""
"","null","learning_trial","html-keyboard-response","203","823507","0.0-3.0-1.97","25","3","
    <div class = 'grid-container'>
        <div class='header-text'> Friends </div>
        <div>
            Camila
            <img width='150' style='border:2px black solid;' src='stims/img/CFD-LF-213-079-N.jpg'>
        </div>
        <div> &nbsp; + &nbsp; </div>
        <div>
            Elijah
            <img width='150' style='border:2px black solid;' src='stims/img/CFD-BM-210-148-N.jpg'>
        </div>
        <div class='header-text'> &nbsp; </div>
    </div>
    ","null","5","false","4","stims/img/CFD-BM-210-148-N.jpg","Elijah","5","stims/img/CFD-LF-213-079-N.jpg","Camila","","",""
"","null","fixation","html-keyboard-response","204","824014","0.0-3.0-0.98","25","3","<div style = ""font-size:60px;""> + </div>","null","","","","","","","","","","",""
"","null","learning_trial","html-keyboard-response","205","826517","0.0-3.0-1.98","25","3","
    <div class = 'grid-container'>
        <div class='header-text'> Friends </div>
        <div>
            Emma
            <img width='150' style='border:2px black solid;' src='stims/img/CFD-AF-203-077-N.jpg'>
        </div>
        <div> &nbsp; + &nbsp; </div>
        <div>
            Elijah
            <img width='150' style='border:2px black solid;' src='stims/img/CFD-BM-210-148-N.jpg'>
        </div>
        <div class='header-text'> &nbsp; </div>
    </div>
    ","null","5","false","4","stims/img/CFD-BM-210-148-N.jpg","Elijah","6","stims/img/CFD-AF-203-077-N.jpg","Emma","","",""
"","null","fixation","html-keyboard-response","206","827023","0.0-3.0-0.99","25","3","<div style = ""font-size:60px;""> + </div>","null","","","","","","","","","","",""
"","null","learning_trial","html-keyboard-response","207","829529","0.0-3.0-1.99","25","3","
    <div class = 'grid-container'>
        <div class='header-text'> Friends </div>
        <div>
            Camila
            <img width='150' style='border:2px black solid;' src='stims/img/CFD-LF-213-079-N.jpg'>
        </div>
        <div> &nbsp; + &nbsp; </div>
        <div>
            Angelina
            <img width='150' style='border:2px black solid;' src='stims/img/CFD-LF-244-096-N.jpg'>
        </div>
        <div class='header-text'> &nbsp; </div>
    </div>
    ","null","5","false","3","stims/img/CFD-LF-244-096-N.jpg","Angelina","5","stims/img/CFD-LF-213-079-N.jpg","Camila","","",""
"","null","fixation","html-keyboard-response","208","830036","0.0-3.0-0.100","25","3","<div style = ""font-size:60px;""> + </div>","null","","","","","","","","","","",""
"","null","learning_trial","html-keyboard-response","209","832544","0.0-3.0-1.100","25","3","
    <div class = 'grid-container'>
        <div class='header-text'> Friends </div>
        <div>
            Ava
            <img width='150' style='border:2px black solid;' src='stims/img/CFD-BF-242-154-N.jpg'>
        </div>
        <div> &nbsp; + &nbsp; </div>
        <div>
            Brandon
            <img width='150' style='border:2px black solid;' src='stims/img/CFD-BM-226-276-N.jpg'>
        </div>
        <div class='header-text'> &nbsp; </div>
    </div>
    ","null","5","false","11","stims/img/CFD-BM-226-276-N.jpg","Brandon","12","stims/img/CFD-BF-242-154-N.jpg","Ava","","",""
"","null","fixation","html-keyboard-response","210","833050","0.0-3.0-0.101","25","3","<div style = ""font-size:60px;""> + </div>","null","","","","","","","","","","",""
"","null","learning_trial","html-keyboard-response","211","835557","0.0-3.0-1.101","25","3","
    <div class = 'grid-container'>
        <div class='header-text'> Friends </div>
        <div>
            Iris
            <img width='150' style='border:2px black solid;' src='stims/img/CFD-AF-227-207-N.jpg'>
        </div>
        <div> &nbsp; + &nbsp; </div>
        <div>
            Ava
            <img width='150' style='border:2px black solid;' src='stims/img/CFD-BF-242-154-N.jpg'>
        </div>
        <div class='header-text'> &nbsp; </div>
    </div>
    ","null","5","false","12","stims/img/CFD-BF-242-154-N.jpg","Ava","13","stims/img/CFD-AF-227-207-N.jpg","Iris","","",""
"","39396","break","html-keyboard-response","212","874953","0.0-3.0-2.101-0.101","25","3","If you'd like to take a break before continuing, 
    please do so now. <p>To continue, please press the spacebar.</p>"," ","","","","","","","","","","",""
"","null","fixation","html-keyboard-response","213","875458","0.0-3.0-0.102","25","3","<div style = ""font-size:60px;""> + </div>","null","","","","","","","","","","",""
"","null","learning_trial","html-keyboard-response","214","877966","0.0-3.0-1.102","25","3","
    <div class = 'grid-container'>
        <div class='header-text'> Friends </div>
        <div>
            Elijah
            <img width='150' style='border:2px black solid;' src='stims/img/CFD-BM-210-148-N.jpg'>
        </div>
        <div> &nbsp; + &nbsp; </div>
        <div>
            Emma
            <img width='150' style='border:2px black solid;' src='stims/img/CFD-AF-203-077-N.jpg'>
        </div>
        <div class='header-text'> &nbsp; </div>
    </div>
    ","null","6","true","4","stims/img/CFD-BM-210-148-N.jpg","Elijah","6","stims/img/CFD-AF-203-077-N.jpg","Emma","","",""
"","null","fixation","html-keyboard-response","215","878473","0.0-3.0-0.103","25","3","<div style = ""font-size:60px;""> + </div>","null","","","","","","","","","","",""
"","null","learning_trial","html-keyboard-response","216","880981","0.0-3.0-1.103","25","3","
    <div class = 'grid-container'>
        <div class='header-text'> Friends </div>
        <div>
            Angelina
            <img width='150' style='border:2px black solid;' src='stims/img/CFD-LF-244-096-N.jpg'>
        </div>
        <div> &nbsp; + &nbsp; </div>
        <div>
            Sophia
            <img width='150' style='border:2px black solid;' src='stims/img/CFD-WF-202-056-N.jpg'>
        </div>
        <div class='header-text'> &nbsp; </div>
    </div>
    ","null","6","false","2","stims/img/CFD-WF-202-056-N.jpg","Sophia","3","stims/img/CFD-LF-244-096-N.jpg","Angelina","","",""
"","null","fixation","html-keyboard-response","217","881487","0.0-3.0-0.104","25","3","<div style = ""font-size:60px;""> + </div>","null","","","","","","","","","","",""
"","null","learning_trial","html-keyboard-response","218","883994","0.0-3.0-1.104","25","3","
    <div class = 'grid-container'>
        <div class='header-text'> Friends </div>
        <div>
            Sophia
            <img width='150' style='border:2px black solid;' src='stims/img/CFD-WF-202-056-N.jpg'>
        </div>
        <div> &nbsp; + &nbsp; </div>
        <div>
            Anthony
            <img width='150' style='border:2px black solid;' src='stims/img/CFD-LM-214-165-N.jpg'>
        </div>
        <div class='header-text'> &nbsp; </div>
    </div>
    ","null","6","false","1","stims/img/CFD-LM-214-165-N.jpg","Anthony","2","stims/img/CFD-WF-202-056-N.jpg","Sophia","","",""
"","null","fixation","html-keyboard-response","219","884500","0.0-3.0-0.105","25","3","<div style = ""font-size:60px;""> + </div>","null","","","","","","","","","","",""
"","null","learning_trial","html-keyboard-response","220","887004","0.0-3.0-1.105","25","3","
    <div class = 'grid-container'>
        <div class='header-text'> Friends </div>
        <div>
            Jack
            <img width='150' style='border:2px black solid;' src='stims/img/CFD-WM-200-034-N.jpg'>
        </div>
        <div> &nbsp; + &nbsp; </div>
        <div>
            Christopher
            <img width='150' style='border:2px black solid;' src='stims/img/CFD-LM-207-004-N.jpg'>
        </div>
        <div class='header-text'> &nbsp; </div>
    </div>
    ","null","6","false","8","stims/img/CFD-LM-207-004-N.jpg","Christopher","10","stims/img/CFD-WM-200-034-N.jpg","Jack","","",""
"","null","fixation","html-keyboard-response","221","887510","0.0-3.0-0.106","25","3","<div style = ""font-size:60px;""> + </div>","null","","","","","","","","","","",""
"","null","learning_trial","html-keyboard-response","222","890016","0.0-3.0-1.106","25","3","
    <div class = 'grid-container'>
        <div class='header-text'> Friends </div>
        <div>
            Kyle
            <img width='150' style='border:2px black solid;' src='stims/img/CFD-AM-220-134-N.jpg'>
        </div>
        <div> &nbsp; + &nbsp; </div>
        <div>
            Emma
            <img width='150' style='border:2px black solid;' src='stims/img/CFD-AF-203-077-N.jpg'>
        </div>
        <div class='header-text'> &nbsp; </div>
    </div>
    ","null","6","false","6","stims/img/CFD-AF-203-077-N.jpg","Emma","7","stims/img/CFD-AM-220-134-N.jpg","Kyle","","",""
"","null","fixation","html-keyboard-response","223","890522","0.0-3.0-0.107","25","3","<div style = ""font-size:60px;""> + </div>","null","","","","","","","","","","",""
"","null","learning_trial","html-keyboard-response","224","893030","0.0-3.0-1.107","25","3","
    <div class = 'grid-container'>
        <div class='header-text'> Friends </div>
        <div>
            Camila
            <img width='150' style='border:2px black solid;' src='stims/img/CFD-LF-213-079-N.jpg'>
        </div>
        <div> &nbsp; + &nbsp; </div>
        <div>
            Angelina
            <img width='150' style='border:2px black solid;' src='stims/img/CFD-LF-244-096-N.jpg'>
        </div>
        <div class='header-text'> &nbsp; </div>
    </div>
    ","null","6","false","3","stims/img/CFD-LF-244-096-N.jpg","Angelina","5","stims/img/CFD-LF-213-079-N.jpg","Camila","","",""
"","null","fixation","html-keyboard-response","225","893536","0.0-3.0-0.108","25","3","<div style = ""font-size:60px;""> + </div>","null","","","","","","","","","","",""
"","null","learning_trial","html-keyboard-response","226","896042","0.0-3.0-1.108","25","3","
    <div class = 'grid-container'>
        <div class='header-text'> Friends </div>
        <div>
            Christopher
            <img width='150' style='border:2px black solid;' src='stims/img/CFD-LM-207-004-N.jpg'>
        </div>
        <div> &nbsp; + &nbsp; </div>
        <div>
            Anthony
            <img width='150' style='border:2px black solid;' src='stims/img/CFD-LM-214-165-N.jpg'>
        </div>
        <div class='header-text'> &nbsp; </div>
    </div>
    ","null","6","false","1","stims/img/CFD-LM-214-165-N.jpg","Anthony","8","stims/img/CFD-LM-207-004-N.jpg","Christopher","","",""
"","null","fixation","html-keyboard-response","227","896548","0.0-3.0-0.109","25","3","<div style = ""font-size:60px;""> + </div>","null","","","","","","","","","","",""
"","null","learning_trial","html-keyboard-response","228","899055","0.0-3.0-1.109","25","3","
    <div class = 'grid-container'>
        <div class='header-text'> Friends </div>
        <div>
            Sophia
            <img width='150' style='border:2px black solid;' src='stims/img/CFD-WF-202-056-N.jpg'>
        </div>
        <div> &nbsp; + &nbsp; </div>
        <div>
            Elijah
            <img width='150' style='border:2px black solid;' src='stims/img/CFD-BM-210-148-N.jpg'>
        </div>
        <div class='header-text'> &nbsp; </div>
    </div>
    ","null","6","true","2","stims/img/CFD-WF-202-056-N.jpg","Sophia","4","stims/img/CFD-BM-210-148-N.jpg","Elijah","","",""
"","null","fixation","html-keyboard-response","229","899561","0.0-3.0-0.110","25","3","<div style = ""font-size:60px;""> + </div>","null","","","","","","","","","","",""
"","null","learning_trial","html-keyboard-response","230","902063","0.0-3.0-1.110","25","3","
    <div class = 'grid-container'>
        <div class='header-text'> Friends </div>
        <div>
            Camila
            <img width='150' style='border:2px black solid;' src='stims/img/CFD-LF-213-079-N.jpg'>
        </div>
        <div> &nbsp; + &nbsp; </div>
        <div>
            Elijah
            <img width='150' style='border:2px black solid;' src='stims/img/CFD-BM-210-148-N.jpg'>
        </div>
        <div class='header-text'> &nbsp; </div>
    </div>
    ","null","6","false","4","stims/img/CFD-BM-210-148-N.jpg","Elijah","5","stims/img/CFD-LF-213-079-N.jpg","Camila","","",""
"","null","fixation","html-keyboard-response","231","902569","0.0-3.0-0.111","25","3","<div style = ""font-size:60px;""> + </div>","null","","","","","","","","","","",""
"","null","learning_trial","html-keyboard-response","232","905076","0.0-3.0-1.111","25","3","
    <div class = 'grid-container'>
        <div class='header-text'> Friends </div>
        <div>
            Jack
            <img width='150' style='border:2px black solid;' src='stims/img/CFD-WM-200-034-N.jpg'>
        </div>
        <div> &nbsp; + &nbsp; </div>
        <div>
            Ava
            <img width='150' style='border:2px black solid;' src='stims/img/CFD-BF-242-154-N.jpg'>
        </div>
        <div class='header-text'> &nbsp; </div>
    </div>
    ","null","6","true","10","stims/img/CFD-WM-200-034-N.jpg","Jack","12","stims/img/CFD-BF-242-154-N.jpg","Ava","","",""
"","null","fixation","html-keyboard-response","233","905583","0.0-3.0-0.112","25","3","<div style = ""font-size:60px;""> + </div>","null","","","","","","","","","","",""
"","null","learning_trial","html-keyboard-response","234","908090","0.0-3.0-1.112","25","3","
    <div class = 'grid-container'>
        <div class='header-text'> Friends </div>
        <div>
            Kyle
            <img width='150' style='border:2px black solid;' src='stims/img/CFD-AM-220-134-N.jpg'>
        </div>
        <div> &nbsp; + &nbsp; </div>
        <div>
            Camila
            <img width='150' style='border:2px black solid;' src='stims/img/CFD-LF-213-079-N.jpg'>
        </div>
        <div class='header-text'> &nbsp; </div>
    </div>
