"view_history","rt","trial_purpose","trial_type","trial_index","time_elapsed","internal_node_id","sub_id","bonus","stimulus","response","rep","display_left","from_id","from_face","from_name","to_id","to_face","to_name","friendship","correct","slider_start"
"[{""page_index"":0,""viewing_time"":261599}]","261599","confirm_correct","instructions","0","373490","0.0-0.0","28","5","","","","","","","","","","","","",""
"[{""page_index"":0,""viewing_time"":880855},{""page_index"":1,""viewing_time"":26585},{""page_index"":2,""viewing_time"":20533}]","927973","instructions","instructions","1","1301426","0.0-1.0","28","5","","","","","","","","","","","","",""
"[{""page_index"":0,""viewing_time"":5711},{""page_index"":1,""viewing_time"":9633},{""page_index"":2,""viewing_time"":26336},{""page_index"":3,""viewing_time"":17033}]","58713","instructions","instructions","2","1360143","0.0-2.0","28","5","","","","","","","","","","","","",""
"","null","fixation","html-keyboard-response","3","1360651","0.0-3.0-0.0","28","5","<div style = ""font-size:60px;""> + </div>","null","","","","","","","","","","",""
"","null","learning_trial","html-keyboard-response","4","1363160","0.0-3.0-1.0","28","5","
    <div class = 'grid-container'>
        <div class='header-text'> Friends </div>
        <div>
            Jayden
            <img width='150' style='border:2px black solid;' src='stims/img/CFD-LM-200-045-N.jpg'>
        </div>
        <div> &nbsp; + &nbsp; </div>
        <div>
            Sarah
            <img width='150' style='border:2px black solid;' src='stims/img/CFD-WF-230-158-N.jpg'>
        </div>
        <div class='header-text'> &nbsp; </div>
    </div>
    ","null","0","false","2","stims/img/CFD-WF-230-158-N.jpg","Sarah","4","stims/img/CFD-LM-200-045-N.jpg","Jayden","","",""
"","null","fixation","html-keyboard-response","5","1363668","0.0-3.0-0.1","28","5","<div style = ""font-size:60px;""> + </div>","null","","","","","","","","","","",""
"","null","learning_trial","html-keyboard-response","6","1366177","0.0-3.0-1.1","28","5","
    <div class = 'grid-container'>
        <div class='header-text'> Friends </div>
        <div>
            Luis
            <img width='150' style='border:2px black solid;' src='stims/img/CFD-LM-211-128-N.jpg'>
        </div>
        <div> &nbsp; + &nbsp; </div>
        <div>
            Ivy
            <img width='150' style='border:2px black solid;' src='stims/img/CFD-AF-247-278-N.jpg'>
        </div>
        <div class='header-text'> &nbsp; </div>
    </div>
    ","null","0","false","10","stims/img/CFD-AF-247-278-N.jpg","Ivy","12","stims/img/CFD-LM-211-128-N.jpg","Luis","","",""
"","null","fixation","html-keyboard-response","7","1366684","0.0-3.0-0.2","28","5","<div style = ""font-size:60px;""> + </div>","null","","","","","","","","","","",""
"","null","learning_trial","html-keyboard-response","8","1369192","0.0-3.0-1.2","28","5","
    <div class = 'grid-container'>
        <div class='header-text'> Friends </div>
        <div>
            Tristan
            <img width='150' style='border:2px black solid;' src='stims/img/CFD-BM-239-136-N.jpg'>
        </div>
        <div> &nbsp; + &nbsp; </div>
        <div>
            Jasmine
            <img width='150' style='border:2px black solid;' src='stims/img/CFD-AF-250-200-N.jpg'>
        </div>
        <div class='header-text'> &nbsp; </div>
    </div>
    ","null","0","true","8","stims/img/CFD-BM-239-136-N.jpg","Tristan","9","stims/img/CFD-AF-250-200-N.jpg","Jasmine","","",""
"","null","fixation","html-keyboard-response","9","1369699","0.0-3.0-0.3","28","5","<div style = ""font-size:60px;""> + </div>","null","","","","","","","","","","",""
"","null","learning_trial","html-keyboard-response","10","1372207","0.0-3.0-1.3","28","5","
    <div class = 'grid-container'>
        <div class='header-text'> Friends </div>
        <div>
            Jayden
            <img width='150' style='border:2px black solid;' src='stims/img/CFD-LM-200-045-N.jpg'>
        </div>
        <div> &nbsp; + &nbsp; </div>
        <div>
            Samuel
            <img width='150' style='border:2px black solid;' src='stims/img/CFD-WM-229-129-N.jpg'>
        </div>
        <div class='header-text'> &nbsp; </div>
    </div>
    ","null","0","true","4","stims/img/CFD-LM-200-045-N.jpg","Jayden","6","stims/img/CFD-WM-229-129-N.jpg","Samuel","","",""
"","null","fixation","html-keyboard-response","11","1372713","0.0-3.0-0.4","28","5","<div style = ""font-size:60px;""> + </div>","null","","","","","","","","","","",""
"","null","learning_trial","html-keyboard-response","12","1375216","0.0-3.0-1.4","28","5","
    <div class = 'grid-container'>
        <div class='header-text'> Friends </div>
        <div>
            Ivy
            <img width='150' style='border:2px black solid;' src='stims/img/CFD-AF-247-278-N.jpg'>
        </div>
        <div> &nbsp; + &nbsp; </div>
        <div>
            Tristan
            <img width='150' style='border:2px black solid;' src='stims/img/CFD-BM-239-136-N.jpg'>
        </div>
        <div class='header-text'> &nbsp; </div>
    </div>
    ","null","0","false","8","stims/img/CFD-BM-239-136-N.jpg","Tristan","10","stims/img/CFD-AF-247-278-N.jpg","Ivy","","",""
"","null","fixation","html-keyboard-response","13","1375723","0.0-3.0-0.5","28","5","<div style = ""font-size:60px;""> + </div>","null","","","","","","","","","","",""
"","null","learning_trial","html-keyboard-response","14","1378227","0.0-3.0-1.5","28","5","
    <div class = 'grid-container'>
        <div class='header-text'> Friends </div>
        <div>
            Brianna
            <img width='150' style='border:2px black solid;' src='stims/img/CFD-LF-225-164-N.jpg'>
        </div>
        <div> &nbsp; + &nbsp; </div>
        <div>
            Ava
            <img width='150' style='border:2px black solid;' src='stims/img/CFD-BF-222-240-N.jpg'>
        </div>
        <div class='header-text'> &nbsp; </div>
    </div>
    ","null","0","true","5","stims/img/CFD-LF-225-164-N.jpg","Brianna","7","stims/img/CFD-BF-222-240-N.jpg","Ava","","",""
"","null","fixation","html-keyboard-response","15","1378733","0.0-3.0-0.6","28","5","<div style = ""font-size:60px;""> + </div>","null","","","","","","","","","","",""
"","null","learning_trial","html-keyboard-response","16","1381241","0.0-3.0-1.6","28","5","
    <div class = 'grid-container'>
        <div class='header-text'> Friends </div>
        <div>
            Ethan
            <img width='150' style='border:2px black solid;' src='stims/img/CFD-AM-242-176-N.jpg'>
        </div>
        <div> &nbsp; + &nbsp; </div>
        <div>
            Luis
            <img width='150' style='border:2px black solid;' src='stims/img/CFD-LM-211-128-N.jpg'>
        </div>
        <div class='header-text'> &nbsp; </div>
    </div>
    ","null","0","true","11","stims/img/CFD-AM-242-176-N.jpg","Ethan","12","stims/img/CFD-LM-211-128-N.jpg","Luis","","",""
"","null","fixation","html-keyboard-response","17","1381743","0.0-3.0-0.7","28","5","<div style = ""font-size:60px;""> + </div>","null","","","","","","","","","","",""
"","null","learning_trial","html-keyboard-response","18","1384249","0.0-3.0-1.7","28","5","
    <div class = 'grid-container'>
        <div class='header-text'> Friends </div>
        <div>
            Ethan
            <img width='150' style='border:2px black solid;' src='stims/img/CFD-AM-242-176-N.jpg'>
        </div>
        <div> &nbsp; + &nbsp; </div>
        <div>
            Jasmine
            <img width='150' style='border:2px black solid;' src='stims/img/CFD-AF-250-200-N.jpg'>
        </div>
        <div class='header-text'> &nbsp; </div>
    </div>
    ","null","0","false","9","stims/img/CFD-AF-250-200-N.jpg","Jasmine","11","stims/img/CFD-AM-242-176-N.jpg","Ethan","","",""
"","null","fixation","html-keyboard-response","19","1384751","0.0-3.0-0.8","28","5","<div style = ""font-size:60px;""> + </div>","null","","","","","","","","","","",""
"","null","learning_trial","html-keyboard-response","20","1387259","0.0-3.0-1.8","28","5","
    <div class = 'grid-container'>
        <div class='header-text'> Friends </div>
        <div>
            Jada
            <img width='150' style='border:2px black solid;' src='stims/img/CFD-BF-207-004-N.jpg'>
        </div>
        <div> &nbsp; + &nbsp; </div>
        <div>
            Jayden
            <img width='150' style='border:2px black solid;' src='stims/img/CFD-LM-200-045-N.jpg'>
        </div>
        <div class='header-text'> &nbsp; </div>
    </div>
    ","null","0","true","3","stims/img/CFD-BF-207-004-N.jpg","Jada","4","stims/img/CFD-LM-200-045-N.jpg","Jayden","","",""
"","null","fixation","html-keyboard-response","21","1387761","0.0-3.0-0.9","28","5","<div style = ""font-size:60px;""> + </div>","null","","","","","","","","","","",""
"","null","learning_trial","html-keyboard-response","22","1390265","0.0-3.0-1.9","28","5","
    <div class = 'grid-container'>
        <div class='header-text'> Friends </div>
        <div>
            Jada
            <img width='150' style='border:2px black solid;' src='stims/img/CFD-BF-207-004-N.jpg'>
        </div>
        <div> &nbsp; + &nbsp; </div>
        <div>
            Brianna
            <img width='150' style='border:2px black solid;' src='stims/img/CFD-LF-225-164-N.jpg'>
        </div>
        <div class='header-text'> &nbsp; </div>
    </div>
    ","null","0","true","3","stims/img/CFD-BF-207-004-N.jpg","Jada","5","stims/img/CFD-LF-225-164-N.jpg","Brianna","","",""
"","null","fixation","html-keyboard-response","23","1390772","0.0-3.0-0.10","28","5","<div style = ""font-size:60px;""> + </div>","null","","","","","","","","","","",""
"","null","learning_trial","html-keyboard-response","24","1393278","0.0-3.0-1.10","28","5","
    <div class = 'grid-container'>
        <div class='header-text'> Friends </div>
        <div>
            Brianna
            <img width='150' style='border:2px black solid;' src='stims/img/CFD-LF-225-164-N.jpg'>
        </div>
        <div> &nbsp; + &nbsp; </div>
        <div>
            Jayden
            <img width='150' style='border:2px black solid;' src='stims/img/CFD-LM-200-045-N.jpg'>
        </div>
        <div class='header-text'> &nbsp; </div>
    </div>
    ","null","0","false","4","stims/img/CFD-LM-200-045-N.jpg","Jayden","5","stims/img/CFD-LF-225-164-N.jpg","Brianna","","",""
"","null","fixation","html-keyboard-response","25","1393785","0.0-3.0-0.11","28","5","<div style = ""font-size:60px;""> + </div>","null","","","","","","","","","","",""
"","null","learning_trial","html-keyboard-response","26","1396291","0.0-3.0-1.11","28","5","
    <div class = 'grid-container'>
        <div class='header-text'> Friends </div>
        <div>
            Ivan
            <img width='150' style='border:2px black solid;' src='stims/img/CFD-AM-220-134-N.jpg'>
        </div>
        <div> &nbsp; + &nbsp; </div>
        <div>
            Sarah
            <img width='150' style='border:2px black solid;' src='stims/img/CFD-WF-230-158-N.jpg'>
        </div>
        <div class='header-text'> &nbsp; </div>
    </div>
    ","null","0","true","1","stims/img/CFD-AM-220-134-N.jpg","Ivan","2","stims/img/CFD-WF-230-158-N.jpg","Sarah","","",""
"","null","fixation","html-keyboard-response","27","1396796","0.0-3.0-0.12","28","5","<div style = ""font-size:60px;""> + </div>","null","","","","","","","","","","",""
"","null","learning_trial","html-keyboard-response","28","1399302","0.0-3.0-1.12","28","5","
    <div class = 'grid-container'>
        <div class='header-text'> Friends </div>
        <div>
            Ava
            <img width='150' style='border:2px black solid;' src='stims/img/CFD-BF-222-240-N.jpg'>
        </div>
        <div> &nbsp; + &nbsp; </div>
        <div>
            Samuel
            <img width='150' style='border:2px black solid;' src='stims/img/CFD-WM-229-129-N.jpg'>
        </div>
        <div class='header-text'> &nbsp; </div>
    </div>
    ","null","0","false","6","stims/img/CFD-WM-229-129-N.jpg","Samuel","7","stims/img/CFD-BF-222-240-N.jpg","Ava","","",""
"","null","fixation","html-keyboard-response","29","1399808","0.0-3.0-0.13","28","5","<div style = ""font-size:60px;""> + </div>","null","","","","","","","","","","",""
"","null","learning_trial","html-keyboard-response","30","1402316","0.0-3.0-1.13","28","5","
    <div class = 'grid-container'>
        <div class='header-text'> Friends </div>
        <div>
            Ethan
            <img width='150' style='border:2px black solid;' src='stims/img/CFD-AM-242-176-N.jpg'>
        </div>
        <div> &nbsp; + &nbsp; </div>
        <div>
            Melanie
            <img width='150' style='border:2px black solid;' src='stims/img/CFD-LF-234-139-N.jpg'>
        </div>
        <div class='header-text'> &nbsp; </div>
    </div>
    ","null","0","true","11","stims/img/CFD-AM-242-176-N.jpg","Ethan","13","stims/img/CFD-LF-234-139-N.jpg","Melanie","","",""
"","null","fixation","html-keyboard-response","31","1402820","0.0-3.0-0.14","28","5","<div style = ""font-size:60px;""> + </div>","null","","","","","","","","","","",""
"","null","learning_trial","html-keyboard-response","32","1405324","0.0-3.0-1.14","28","5","
    <div class = 'grid-container'>
        <div class='header-text'> Friends </div>
        <div>
            Ivan
            <img width='150' style='border:2px black solid;' src='stims/img/CFD-AM-220-134-N.jpg'>
        </div>
        <div> &nbsp; + &nbsp; </div>
        <div>
            Tristan
            <img width='150' style='border:2px black solid;' src='stims/img/CFD-BM-239-136-N.jpg'>
        </div>
        <div class='header-text'> &nbsp; </div>
    </div>
    ","null","0","true","1","stims/img/CFD-AM-220-134-N.jpg","Ivan","8","stims/img/CFD-BM-239-136-N.jpg","Tristan","","",""
"","null","fixation","html-keyboard-response","33","1405830","0.0-3.0-0.15","28","5","<div style = ""font-size:60px;""> + </div>","null","","","","","","","","","","",""
"","null","learning_trial","html-keyboard-response","34","1408332","0.0-3.0-1.15","28","5","
    <div class = 'grid-container'>
        <div class='header-text'> Friends </div>
        <div>
            Jada
            <img width='150' style='border:2px black solid;' src='stims/img/CFD-BF-207-004-N.jpg'>
        </div>
        <div> &nbsp; + &nbsp; </div>
        <div>
            Sarah
            <img width='150' style='border:2px black solid;' src='stims/img/CFD-WF-230-158-N.jpg'>
        </div>
        <div class='header-text'> &nbsp; </div>
    </div>
    ","null","0","false","2","stims/img/CFD-WF-230-158-N.jpg","Sarah","3","stims/img/CFD-BF-207-004-N.jpg","Jada","","",""
"","null","fixation","html-keyboard-response","35","1408839","0.0-3.0-0.16","28","5","<div style = ""font-size:60px;""> + </div>","null","","","","","","","","","","",""
"","null","learning_trial","html-keyboard-response","36","1411346","0.0-3.0-1.16","28","5","
    <div class = 'grid-container'>
        <div class='header-text'> Friends </div>
        <div>
            Melanie
            <img width='150' style='border:2px black solid;' src='stims/img/CFD-LF-234-139-N.jpg'>
        </div>
        <div> &nbsp; + &nbsp; </div>
        <div>
            Luis
            <img width='150' style='border:2px black solid;' src='stims/img/CFD-LM-211-128-N.jpg'>
        </div>
        <div class='header-text'> &nbsp; </div>
    </div>
    ","null","0","false","12","stims/img/CFD-LM-211-128-N.jpg","Luis","13","stims/img/CFD-LF-234-139-N.jpg","Melanie","","",""
"","59561","break","html-keyboard-response","37","1470906","0.0-3.0-2.16-0.16","28","5","If you'd like to take a break before continuing, 
    please do so now. <p>To continue, please press the spacebar.</p>"," ","","","","","","","","","","",""
"","null","fixation","html-keyboard-response","38","1471413","0.0-3.0-0.17","28","5","<div style = ""font-size:60px;""> + </div>","null","","","","","","","","","","",""
"","null","learning_trial","html-keyboard-response","39","1473920","0.0-3.0-1.17","28","5","
    <div class = 'grid-container'>
        <div class='header-text'> Friends </div>
        <div>
            Jada
            <img width='150' style='border:2px black solid;' src='stims/img/CFD-BF-207-004-N.jpg'>
        </div>
        <div> &nbsp; + &nbsp; </div>
        <div>
            Jayden
            <img width='150' style='border:2px black solid;' src='stims/img/CFD-LM-200-045-N.jpg'>
        </div>
        <div class='header-text'> &nbsp; </div>
    </div>
    ","null","1","true","3","stims/img/CFD-BF-207-004-N.jpg","Jada","4","stims/img/CFD-LM-200-045-N.jpg","Jayden","","",""
"","null","fixation","html-keyboard-response","40","1474423","0.0-3.0-0.18","28","5","<div style = ""font-size:60px;""> + </div>","null","","","","","","","","","","",""
"","null","learning_trial","html-keyboard-response","41","1476930","0.0-3.0-1.18","28","5","
    <div class = 'grid-container'>
        <div class='header-text'> Friends </div>
        <div>
            Sarah
            <img width='150' style='border:2px black solid;' src='stims/img/CFD-WF-230-158-N.jpg'>
        </div>
        <div> &nbsp; + &nbsp; </div>
        <div>
            Ivan
            <img width='150' style='border:2px black solid;' src='stims/img/CFD-AM-220-134-N.jpg'>
        </div>
        <div class='header-text'> &nbsp; </div>
    </div>
    ","null","1","false","1","stims/img/CFD-AM-220-134-N.jpg","Ivan","2","stims/img/CFD-WF-230-158-N.jpg","Sarah","","",""
"","null","fixation","html-keyboard-response","42","1477436","0.0-3.0-0.19","28","5","<div style = ""font-size:60px;""> + </div>","null","","","","","","","","","","",""
"","null","learning_trial","html-keyboard-response","43","1479940","0.0-3.0-1.19","28","5","
    <div class = 'grid-container'>
        <div class='header-text'> Friends </div>
        <div>
            Samuel
            <img width='150' style='border:2px black solid;' src='stims/img/CFD-WM-229-129-N.jpg'>
        </div>
        <div> &nbsp; + &nbsp; </div>
        <div>
            Ava
            <img width='150' style='border:2px black solid;' src='stims/img/CFD-BF-222-240-N.jpg'>
        </div>
        <div class='header-text'> &nbsp; </div>
    </div>
    ","null","1","true","6","stims/img/CFD-WM-229-129-N.jpg","Samuel","7","stims/img/CFD-BF-222-240-N.jpg","Ava","","",""
"","null","fixation","html-keyboard-response","44","1480442","0.0-3.0-0.20","28","5","<div style = ""font-size:60px;""> + </div>","null","","","","","","","","","","",""
"","null","learning_trial","html-keyboard-response","45","1482948","0.0-3.0-1.20","28","5","
    <div class = 'grid-container'>
        <div class='header-text'> Friends </div>
        <div>
            Ava
            <img width='150' style='border:2px black solid;' src='stims/img/CFD-BF-222-240-N.jpg'>
        </div>
        <div> &nbsp; + &nbsp; </div>
        <div>
            Brianna
            <img width='150' style='border:2px black solid;' src='stims/img/CFD-LF-225-164-N.jpg'>
        </div>
        <div class='header-text'> &nbsp; </div>
    </div>
    ","null","1","false","5","stims/img/CFD-LF-225-164-N.jpg","Brianna","7","stims/img/CFD-BF-222-240-N.jpg","Ava","","",""
"","null","fixation","html-keyboard-response","46","1483454","0.0-3.0-0.21","28","5","<div style = ""font-size:60px;""> + </div>","null","","","","","","","","","","",""
"","null","learning_trial","html-keyboard-response","47","1485961","0.0-3.0-1.21","28","5","
    <div class = 'grid-container'>
        <div class='header-text'> Friends </div>
        <div>
            Jayden
            <img width='150' style='border:2px black solid;' src='stims/img/CFD-LM-200-045-N.jpg'>
        </div>
        <div> &nbsp; + &nbsp; </div>
        <div>
            Brianna
            <img width='150' style='border:2px black solid;' src='stims/img/CFD-LF-225-164-N.jpg'>
        </div>
        <div class='header-text'> &nbsp; </div>
    </div>
    ","null","1","true","4","stims/img/CFD-LM-200-045-N.jpg","Jayden","5","stims/img/CFD-LF-225-164-N.jpg","Brianna","","",""
"","null","fixation","html-keyboard-response","48","1486467","0.0-3.0-0.22","28","5","<div style = ""font-size:60px;""> + </div>","null","","","","","","","","","","",""
"","null","learning_trial","html-keyboard-response","49","1488974","0.0-3.0-1.22","28","5","
    <div class = 'grid-container'>
        <div class='header-text'> Friends </div>
        <div>
            Brianna
            <img width='150' style='border:2px black solid;' src='stims/img/CFD-LF-225-164-N.jpg'>
        </div>
        <div> &nbsp; + &nbsp; </div>
        <div>
            Jada
            <img width='150' style='border:2px black solid;' src='stims/img/CFD-BF-207-004-N.jpg'>
        </div>
        <div class='header-text'> &nbsp; </div>
    </div>
    ","null","1","false","3","stims/img/CFD-BF-207-004-N.jpg","Jada","5","stims/img/CFD-LF-225-164-N.jpg","Brianna","","",""
"","null","fixation","html-keyboard-response","50","1489481","0.0-3.0-0.23","28","5","<div style = ""font-size:60px;""> + </div>","null","","","","","","","","","","",""
"","null","learning_trial","html-keyboard-response","51","1491987","0.0-3.0-1.23","28","5","
    <div class = 'grid-container'>
        <div class='header-text'> Friends </div>
        <div>
            Samuel
            <img width='150' style='border:2px black solid;' src='stims/img/CFD-WM-229-129-N.jpg'>
        </div>
        <div> &nbsp; + &nbsp; </div>
        <div>
            Jayden
            <img width='150' style='border:2px black solid;' src='stims/img/CFD-LM-200-045-N.jpg'>
        </div>
        <div class='header-text'> &nbsp; </div>
    </div>
    ","null","1","false","4","stims/img/CFD-LM-200-045-N.jpg","Jayden","6","stims/img/CFD-WM-229-129-N.jpg","Samuel","","",""
"","null","fixation","html-keyboard-response","52","1492493","0.0-3.0-0.24","28","5","<div style = ""font-size:60px;""> + </div>","null","","","","","","","","","","",""
"","null","learning_trial","html-keyboard-response","53","1495001","0.0-3.0-1.24","28","5","
    <div class = 'grid-container'>
        <div class='header-text'> Friends </div>
        <div>
            Ethan
            <img width='150' style='border:2px black solid;' src='stims/img/CFD-AM-242-176-N.jpg'>
        </div>
        <div> &nbsp; + &nbsp; </div>
        <div>
            Luis
            <img width='150' style='border:2px black solid;' src='stims/img/CFD-LM-211-128-N.jpg'>
        </div>
        <div class='header-text'> &nbsp; </div>
    </div>
    ","null","1","true","11","stims/img/CFD-AM-242-176-N.jpg","Ethan","12","stims/img/CFD-LM-211-128-N.jpg","Luis","","",""
"","null","fixation","html-keyboard-response","54","1495507","0.0-3.0-0.25","28","5","<div style = ""font-size:60px;""> + </div>","null","","","","","","","","","","",""
"","null","learning_trial","html-keyboard-response","55","1498014","0.0-3.0-1.25","28","5","
    <div class = 'grid-container'>
        <div class='header-text'> Friends </div>
        <div>
            Tristan
            <img width='150' style='border:2px black solid;' src='stims/img/CFD-BM-239-136-N.jpg'>
        </div>
        <div> &nbsp; + &nbsp; </div>
        <div>
            Jasmine
            <img width='150' style='border:2px black solid;' src='stims/img/CFD-AF-250-200-N.jpg'>
        </div>
        <div class='header-text'> &nbsp; </div>
    </div>
    ","null","1","true","8","stims/img/CFD-BM-239-136-N.jpg","Tristan","9","stims/img/CFD-AF-250-200-N.jpg","Jasmine","","",""
"","null","fixation","html-keyboard-response","56","1498520","0.0-3.0-0.26","28","5","<div style = ""font-size:60px;""> + </div>","null","","","","","","","","","","",""
"","null","learning_trial","html-keyboard-response","57","1501027","0.0-3.0-1.26","28","5","
    <div class = 'grid-container'>
        <div class='header-text'> Friends </div>
        <div>
            Ethan
            <img width='150' style='border:2px black solid;' src='stims/img/CFD-AM-242-176-N.jpg'>
        </div>
        <div> &nbsp; + &nbsp; </div>
        <div>
            Jasmine
            <img width='150' style='border:2px black solid;' src='stims/img/CFD-AF-250-200-N.jpg'>
        </div>
        <div class='header-text'> &nbsp; </div>
    </div>
    ","null","1","false","9","stims/img/CFD-AF-250-200-N.jpg","Jasmine","11","stims/img/CFD-AM-242-176-N.jpg","Ethan","","",""
"","null","fixation","html-keyboard-response","58","1501533","0.0-3.0-0.27","28","5","<div style = ""font-size:60px;""> + </div>","null","","","","","","","","","","",""
"","null","learning_trial","html-keyboard-response","59","1504040","0.0-3.0-1.27","28","5","
    <div class = 'grid-container'>
        <div class='header-text'> Friends </div>
        <div>
            Jada
            <img width='150' style='border:2px black solid;' src='stims/img/CFD-BF-207-004-N.jpg'>
        </div>
        <div> &nbsp; + &nbsp; </div>
        <div>
            Sarah
            <img width='150' style='border:2px black solid;' src='stims/img/CFD-WF-230-158-N.jpg'>
        </div>
        <div class='header-text'> &nbsp; </div>
    </div>
    ","null","1","false","2","stims/img/CFD-WF-230-158-N.jpg","Sarah","3","stims/img/CFD-BF-207-004-N.jpg","Jada","","",""
"","null","fixation","html-keyboard-response","60","1504546","0.0-3.0-0.28","28","5","<div style = ""font-size:60px;""> + </div>","null","","","","","","","","","","",""
"","null","learning_trial","html-keyboard-response","61","1507053","0.0-3.0-1.28","28","5","
    <div class = 'grid-container'>
        <div class='header-text'> Friends </div>
        <div>
            Tristan
            <img width='150' style='border:2px black solid;' src='stims/img/CFD-BM-239-136-N.jpg'>
        </div>
        <div> &nbsp; + &nbsp; </div>
        <div>
            Ivy
            <img width='150' style='border:2px black solid;' src='stims/img/CFD-AF-247-278-N.jpg'>
        </div>
        <div class='header-text'> &nbsp; </div>
    </div>
    ","null","1","true","8","stims/img/CFD-BM-239-136-N.jpg","Tristan","10","stims/img/CFD-AF-247-278-N.jpg","Ivy","","",""
"","null","fixation","html-keyboard-response","62","1507559","0.0-3.0-0.29","28","5","<div style = ""font-size:60px;""> + </div>","null","","","","","","","","","","",""
"","null","learning_trial","html-keyboard-response","63","1510067","0.0-3.0-1.29","28","5","
    <div class = 'grid-container'>
        <div class='header-text'> Friends </div>
        <div>
            Ivy
            <img width='150' style='border:2px black solid;' src='stims/img/CFD-AF-247-278-N.jpg'>
        </div>
        <div> &nbsp; + &nbsp; </div>
        <div>
            Luis
            <img width='150' style='border:2px black solid;' src='stims/img/CFD-LM-211-128-N.jpg'>
        </div>
        <div class='header-text'> &nbsp; </div>
    </div>
    ","null","1","true","10","stims/img/CFD-AF-247-278-N.jpg","Ivy","12","stims/img/CFD-LM-211-128-N.jpg","Luis","","",""
"","null","fixation","html-keyboard-response","64","1510573","0.0-3.0-0.30","28","5","<div style = ""font-size:60px;""> + </div>","null","","","","","","","","","","",""
"","null","learning_trial","html-keyboard-response","65","1513079","0.0-3.0-1.30","28","5","
    <div class = 'grid-container'>
        <div class='header-text'> Friends </div>
        <div>
            Tristan
            <img width='150' style='border:2px black solid;' src='stims/img/CFD-BM-239-136-N.jpg'>
        </div>
        <div> &nbsp; + &nbsp; </div>
        <div>
            Ivan
            <img width='150' style='border:2px black solid;' src='stims/img/CFD-AM-220-134-N.jpg'>
        </div>
        <div class='header-text'> &nbsp; </div>
    </div>
    ","null","1","false","1","stims/img/CFD-AM-220-134-N.jpg","Ivan","8","stims/img/CFD-BM-239-136-N.jpg","Tristan","","",""
"","null","fixation","html-keyboard-response","66","1513586","0.0-3.0-0.31","28","5","<div style = ""font-size:60px;""> + </div>","null","","","","","","","","","","",""
"","null","learning_trial","html-keyboard-response","67","1516090","0.0-3.0-1.31","28","5","
    <div class = 'grid-container'>
        <div class='header-text'> Friends </div>
        <div>
            Ethan
            <img width='150' style='border:2px black solid;' src='stims/img/CFD-AM-242-176-N.jpg'>
        </div>
        <div> &nbsp; + &nbsp; </div>
        <div>
            Melanie
            <img width='150' style='border:2px black solid;' src='stims/img/CFD-LF-234-139-N.jpg'>
        </div>
        <div class='header-text'> &nbsp; </div>
    </div>
    ","null","1","true","11","stims/img/CFD-AM-242-176-N.jpg","Ethan","13","stims/img/CFD-LF-234-139-N.jpg","Melanie","","",""
"","null","fixation","html-keyboard-response","68","1516596","0.0-3.0-0.32","28","5","<div style = ""font-size:60px;""> + </div>","null","","","","","","","","","","",""
"","null","learning_trial","html-keyboard-response","69","1519103","0.0-3.0-1.32","28","5","
    <div class = 'grid-container'>
        <div class='header-text'> Friends </div>
        <div>
            Jayden
            <img width='150' style='border:2px black solid;' src='stims/img/CFD-LM-200-045-N.jpg'>
        </div>
        <div> &nbsp; + &nbsp; </div>
        <div>
            Sarah
            <img width='150' style='border:2px black solid;' src='stims/img/CFD-WF-230-158-N.jpg'>
        </div>
        <div class='header-text'> &nbsp; </div>
    </div>
    ","null","1","false","2","stims/img/CFD-WF-230-158-N.jpg","Sarah","4","stims/img/CFD-LM-200-045-N.jpg","Jayden","","",""
"","null","fixation","html-keyboard-response","70","1519609","0.0-3.0-0.33","28","5","<div style = ""font-size:60px;""> + </div>","null","","","","","","","","","","",""
"","null","learning_trial","html-keyboard-response","71","1522115","0.0-3.0-1.33","28","5","
    <div class = 'grid-container'>
        <div class='header-text'> Friends </div>
        <div>
            Luis
            <img width='150' style='border:2px black solid;' src='stims/img/CFD-LM-211-128-N.jpg'>
        </div>
        <div> &nbsp; + &nbsp; </div>
        <div>
            Melanie
            <img width='150' style='border:2px black solid;' src='stims/img/CFD-LF-234-139-N.jpg'>
        </div>
        <div class='header-text'> &nbsp; </div>
    </div>
    ","null","1","true","12","stims/img/CFD-LM-211-128-N.jpg","Luis","13","stims/img/CFD-LF-234-139-N.jpg","Melanie","","",""
"","14333","break","html-keyboard-response","72","1536449","0.0-3.0-2.33-0.33","28","5","If you'd like to take a break before continuing, 
    please do so now. <p>To continue, please press the spacebar.</p>"," ","","","","","","","","","","",""
"","null","fixation","html-keyboard-response","73","1536952","0.0-3.0-0.34","28","5","<div style = ""font-size:60px;""> + </div>","null","","","","","","","","","","",""
"","null","learning_trial","html-keyboard-response","74","1539460","0.0-3.0-1.34","28","5","
    <div class = 'grid-container'>
        <div class='header-text'> Friends </div>
        <div>
            Jayden
            <img width='150' style='border:2px black solid;' src='stims/img/CFD-LM-200-045-N.jpg'>
        </div>
        <div> &nbsp; + &nbsp; </div>
        <div>
            Jada
            <img width='150' style='border:2px black solid;' src='stims/img/CFD-BF-207-004-N.jpg'>
        </div>
        <div class='header-text'> &nbsp; </div>
    </div>
    ","null","2","false","3","stims/img/CFD-BF-207-004-N.jpg","Jada","4","stims/img/CFD-LM-200-045-N.jpg","Jayden","","",""
"","null","fixation","html-keyboard-response","75","1539965","0.0-3.0-0.35","28","5","<div style = ""font-size:60px;""> + </div>","null","","","","","","","","","","",""
"","null","learning_trial","html-keyboard-response","76","1542471","0.0-3.0-1.35","28","5","
    <div class = 'grid-container'>
        <div class='header-text'> Friends </div>
        <div>
            Tristan
            <img width='150' style='border:2px black solid;' src='stims/img/CFD-BM-239-136-N.jpg'>
        </div>
        <div> &nbsp; + &nbsp; </div>
        <div>
            Jasmine
            <img width='150' style='border:2px black solid;' src='stims/img/CFD-AF-250-200-N.jpg'>
        </div>
        <div class='header-text'> &nbsp; </div>
    </div>
    ","null","2","true","8","stims/img/CFD-BM-239-136-N.jpg","Tristan","9","stims/img/CFD-AF-250-200-N.jpg","Jasmine","","",""
"","null","fixation","html-keyboard-response","77","1542977","0.0-3.0-0.36","28","5","<div style = ""font-size:60px;""> + </div>","null","","","","","","","","","","",""
"","null","learning_trial","html-keyboard-response","78","1545485","0.0-3.0-1.36","28","5","
    <div class = 'grid-container'>
        <div class='header-text'> Friends </div>
        <div>
            Sarah
            <img width='150' style='border:2px black solid;' src='stims/img/CFD-WF-230-158-N.jpg'>
        </div>
        <div> &nbsp; + &nbsp; </div>
        <div>
            Jada
            <img width='150' style='border:2px black solid;' src='stims/img/CFD-BF-207-004-N.jpg'>
        </div>
        <div class='header-text'> &nbsp; </div>
    </div>
    ","null","2","true","2","stims/img/CFD-WF-230-158-N.jpg","Sarah","3","stims/img/CFD-BF-207-004-N.jpg","Jada","","",""
"","null","fixation","html-keyboard-response","79","1545987","0.0-3.0-0.37","28","5","<div style = ""font-size:60px;""> + </div>","null","","","","","","","","","","",""
"","null","learning_trial","html-keyboard-response","80","1548495","0.0-3.0-1.37","28","5","
    <div class = 'grid-container'>
        <div class='header-text'> Friends </div>
        <div>
            Samuel
            <img width='150' style='border:2px black solid;' src='stims/img/CFD-WM-229-129-N.jpg'>
        </div>
        <div> &nbsp; + &nbsp; </div>
        <div>
            Ava
            <img width='150' style='border:2px black solid;' src='stims/img/CFD-BF-222-240-N.jpg'>
        </div>
        <div class='header-text'> &nbsp; </div>
    </div>
    ","null","2","true","6","stims/img/CFD-WM-229-129-N.jpg","Samuel","7","stims/img/CFD-BF-222-240-N.jpg","Ava","","",""
"","null","fixation","html-keyboard-response","81","1549001","0.0-3.0-0.38","28","5","<div style = ""font-size:60px;""> + </div>","null","","","","","","","","","","",""
"","null","learning_trial","html-keyboard-response","82","1551508","0.0-3.0-1.38","28","5","
    <div class = 'grid-container'>
        <div class='header-text'> Friends </div>
        <div>
            Brianna
            <img width='150' style='border:2px black solid;' src='stims/img/CFD-LF-225-164-N.jpg'>
        </div>
        <div> &nbsp; + &nbsp; </div>
        <div>
            Ava
            <img width='150' style='border:2px black solid;' src='stims/img/CFD-BF-222-240-N.jpg'>
        </div>
        <div class='header-text'> &nbsp; </div>
    </div>
    ","null","2","true","5","stims/img/CFD-LF-225-164-N.jpg","Brianna","7","stims/img/CFD-BF-222-240-N.jpg","Ava","","",""
"","null","fixation","html-keyboard-response","83","1552014","0.0-3.0-0.39","28","5","<div style = ""font-size:60px;""> + </div>","null","","","","","","","","","","",""
"","null","learning_trial","html-keyboard-response","84","1554516","0.0-3.0-1.39","28","5","
    <div class = 'grid-container'>
        <div class='header-text'> Friends </div>
        <div>
            Jada
            <img width='150' style='border:2px black solid;' src='stims/img/CFD-BF-207-004-N.jpg'>
        </div>
        <div> &nbsp; + &nbsp; </div>
        <div>
            Brianna
            <img width='150' style='border:2px black solid;' src='stims/img/CFD-LF-225-164-N.jpg'>
        </div>
        <div class='header-text'> &nbsp; </div>
    </div>
    ","null","2","true","3","stims/img/CFD-BF-207-004-N.jpg","Jada","5","stims/img/CFD-LF-225-164-N.jpg","Brianna","","",""
"","null","fixation","html-keyboard-response","85","1555022","0.0-3.0-0.40","28","5","<div style = ""font-size:60px;""> + </div>","null","","","","","","","","","","",""
"","null","learning_trial","html-keyboard-response","86","1557528","0.0-3.0-1.40","28","5","
    <div class = 'grid-container'>
        <div class='header-text'> Friends </div>
        <div>
            Luis
            <img width='150' style='border:2px black solid;' src='stims/img/CFD-LM-211-128-N.jpg'>
        </div>
        <div> &nbsp; + &nbsp; </div>
        <div>
            Melanie
            <img width='150' style='border:2px black solid;' src='stims/img/CFD-LF-234-139-N.jpg'>
        </div>
        <div class='header-text'> &nbsp; </div>
    </div>
    ","null","2","true","12","stims/img/CFD-LM-211-128-N.jpg","Luis","13","stims/img/CFD-LF-234-139-N.jpg","Melanie","","",""
"","null","fixation","html-keyboard-response","87","1558035","0.0-3.0-0.41","28","5","<div style = ""font-size:60px;""> + </div>","null","","","","","","","","","","",""
"","null","learning_trial","html-keyboard-response","88","1560537","0.0-3.0-1.41","28","5","
    <div class = 'grid-container'>
        <div class='header-text'> Friends </div>
        <div>
            Sarah
            <img width='150' style='border:2px black solid;' src='stims/img/CFD-WF-230-158-N.jpg'>
        </div>
        <div> &nbsp; + &nbsp; </div>
        <div>
            Jayden
            <img width='150' style='border:2px black solid;' src='stims/img/CFD-LM-200-045-N.jpg'>
        </div>
        <div class='header-text'> &nbsp; </div>
    </div>
    ","null","2","true","2","stims/img/CFD-WF-230-158-N.jpg","Sarah","4","stims/img/CFD-LM-200-045-N.jpg","Jayden","","",""
"","null","fixation","html-keyboard-response","89","1561038","0.0-3.0-0.42","28","5","<div style = ""font-size:60px;""> + </div>","null","","","","","","","","","","",""
"","null","learning_trial","html-keyboard-response","90","1563545","0.0-3.0-1.42","28","5","
    <div class = 'grid-container'>
        <div class='header-text'> Friends </div>
        <div>
            Jayden
            <img width='150' style='border:2px black solid;' src='stims/img/CFD-LM-200-045-N.jpg'>
        </div>
        <div> &nbsp; + &nbsp; </div>
        <div>
            Samuel
            <img width='150' style='border:2px black solid;' src='stims/img/CFD-WM-229-129-N.jpg'>
        </div>
        <div class='header-text'> &nbsp; </div>
    </div>
    ","null","2","true","4","stims/img/CFD-LM-200-045-N.jpg","Jayden","6","stims/img/CFD-WM-229-129-N.jpg","Samuel","","",""
"","null","fixation","html-keyboard-response","91","1564046","0.0-3.0-0.43","28","5","<div style = ""font-size:60px;""> + </div>","null","","","","","","","","","","",""
"","null","learning_trial","html-keyboard-response","92","1566553","0.0-3.0-1.43","28","5","
    <div class = 'grid-container'>
        <div class='header-text'> Friends </div>
        <div>
            Ivy
            <img width='150' style='border:2px black solid;' src='stims/img/CFD-AF-247-278-N.jpg'>
        </div>
        <div> &nbsp; + &nbsp; </div>
        <div>
            Tristan
            <img width='150' style='border:2px black solid;' src='stims/img/CFD-BM-239-136-N.jpg'>
        </div>
        <div class='header-text'> &nbsp; </div>
    </div>
    ","null","2","false","8","stims/img/CFD-BM-239-136-N.jpg","Tristan","10","stims/img/CFD-AF-247-278-N.jpg","Ivy","","",""
"","null","fixation","html-keyboard-response","93","1567059","0.0-3.0-0.44","28","5","<div style = ""font-size:60px;""> + </div>","null","","","","","","","","","","",""
"","null","learning_trial","html-keyboard-response","94","1569566","0.0-3.0-1.44","28","5","
    <div class = 'grid-container'>
        <div class='header-text'> Friends </div>
        <div>
            Luis
            <img width='150' style='border:2px black solid;' src='stims/img/CFD-LM-211-128-N.jpg'>
        </div>
        <div> &nbsp; + &nbsp; </div>
        <div>
            Ethan
            <img width='150' style='border:2px black solid;' src='stims/img/CFD-AM-242-176-N.jpg'>
        </div>
        <div class='header-text'> &nbsp; </div>
    </div>
    ","null","2","false","11","stims/img/CFD-AM-242-176-N.jpg","Ethan","12","stims/img/CFD-LM-211-128-N.jpg","Luis","","",""
"","null","fixation","html-keyboard-response","95","1570072","0.0-3.0-0.45","28","5","<div style = ""font-size:60px;""> + </div>","null","","","","","","","","","","",""
"","null","learning_trial","html-keyboard-response","96","1572579","0.0-3.0-1.45","28","5","
    <div class = 'grid-container'>
        <div class='header-text'> Friends </div>
        <div>
            Tristan
            <img width='150' style='border:2px black solid;' src='stims/img/CFD-BM-239-136-N.jpg'>
        </div>
        <div> &nbsp; + &nbsp; </div>
        <div>
            Ivan
            <img width='150' style='border:2px black solid;' src='stims/img/CFD-AM-220-134-N.jpg'>
        </div>
        <div class='header-text'> &nbsp; </div>
    </div>
    ","null","2","false","1","stims/img/CFD-AM-220-134-N.jpg","Ivan","8","stims/img/CFD-BM-239-136-N.jpg","Tristan","","",""
"","null","fixation","html-keyboard-response","97","1573081","0.0-3.0-0.46","28","5","<div style = ""font-size:60px;""> + </div>","null","","","","","","","","","","",""
"","null","learning_trial","html-keyboard-response","98","1575588","0.0-3.0-1.46","28","5","
    <div class = 'grid-container'>
        <div class='header-text'> Friends </div>
        <div>
            Jasmine
            <img width='150' style='border:2px black solid;' src='stims/img/CFD-AF-250-200-N.jpg'>
        </div>
        <div> &nbsp; + &nbsp; </div>
        <div>
            Ethan
            <img width='150' style='border:2px black solid;' src='stims/img/CFD-AM-242-176-N.jpg'>
        </div>
        <div class='header-text'> &nbsp; </div>
    </div>
    ","null","2","true","9","stims/img/CFD-AF-250-200-N.jpg","Jasmine","11","stims/img/CFD-AM-242-176-N.jpg","Ethan","","",""
"","null","fixation","html-keyboard-response","99","1576095","0.0-3.0-0.47","28","5","<div style = ""font-size:60px;""> + </div>","null","","","","","","","","","","",""
"","null","learning_trial","html-keyboard-response","100","1578602","0.0-3.0-1.47","28","5","
    <div class = 'grid-container'>
        <div class='header-text'> Friends </div>
        <div>
            Brianna
            <img width='150' style='border:2px black solid;' src='stims/img/CFD-LF-225-164-N.jpg'>
        </div>
        <div> &nbsp; + &nbsp; </div>
        <div>
            Jayden
            <img width='150' style='border:2px black solid;' src='stims/img/CFD-LM-200-045-N.jpg'>
        </div>
        <div class='header-text'> &nbsp; </div>
    </div>
    ","null","2","false","4","stims/img/CFD-LM-200-045-N.jpg","Jayden","5","stims/img/CFD-LF-225-164-N.jpg","Brianna","","",""
"","null","fixation","html-keyboard-response","101","1579107","0.0-3.0-0.48","28","5","<div style = ""font-size:60px;""> + </div>","null","","","","","","","","","","",""
"","null","learning_trial","html-keyboard-response","102","1581614","0.0-3.0-1.48","28","5","
    <div class = 'grid-container'>
        <div class='header-text'> Friends </div>
        <div>
            Luis
            <img width='150' style='border:2px black solid;' src='stims/img/CFD-LM-211-128-N.jpg'>
        </div>
        <div> &nbsp; + &nbsp; </div>
        <div>
            Ivy
            <img width='150' style='border:2px black solid;' src='stims/img/CFD-AF-247-278-N.jpg'>
        </div>
        <div class='header-text'> &nbsp; </div>
    </div>
    ","null","2","false","10","stims/img/CFD-AF-247-278-N.jpg","Ivy","12","stims/img/CFD-LM-211-128-N.jpg","Luis","","",""
"","null","fixation","html-keyboard-response","103","1582120","0.0-3.0-0.49","28","5","<div style = ""font-size:60px;""> + </div>","null","","","","","","","","","","",""
"","null","learning_trial","html-keyboard-response","104","1584623","0.0-3.0-1.49","28","5","
    <div class = 'grid-container'>
        <div class='header-text'> Friends </div>
        <div>
            Ivan
            <img width='150' style='border:2px black solid;' src='stims/img/CFD-AM-220-134-N.jpg'>
        </div>
        <div> &nbsp; + &nbsp; </div>
        <div>
            Sarah
            <img width='150' style='border:2px black solid;' src='stims/img/CFD-WF-230-158-N.jpg'>
        </div>
        <div class='header-text'> &nbsp; </div>
    </div>
    ","null","2","true","1","stims/img/CFD-AM-220-134-N.jpg","Ivan","2","stims/img/CFD-WF-230-158-N.jpg","Sarah","","",""
"","null","fixation","html-keyboard-response","105","1585128","0.0-3.0-0.50","28","5","<div style = ""font-size:60px;""> + </div>","null","","","","","","","","","","",""
"","null","learning_trial","html-keyboard-response","106","1587630","0.0-3.0-1.50","28","5","
    <div class = 'grid-container'>
        <div class='header-text'> Friends </div>
        <div>
            Ethan
            <img width='150' style='border:2px black solid;' src='stims/img/CFD-AM-242-176-N.jpg'>
        </div>
        <div> &nbsp; + &nbsp; </div>
        <div>
            Melanie
            <img width='150' style='border:2px black solid;' src='stims/img/CFD-LF-234-139-N.jpg'>
        </div>
        <div class='header-text'> &nbsp; </div>
    </div>
    ","null","2","true","11","stims/img/CFD-AM-242-176-N.jpg","Ethan","13","stims/img/CFD-LF-234-139-N.jpg","Melanie","","",""
"","1308","break","html-keyboard-response","107","1588939","0.0-3.0-2.50-0.50","28","5","If you'd like to take a break before continuing, 
    please do so now. <p>To continue, please press the spacebar.</p>"," ","","","","","","","","","","",""
"","null","fixation","html-keyboard-response","108","1589444","0.0-3.0-0.51","28","5","<div style = ""font-size:60px;""> + </div>","null","","","","","","","","","","",""
"","null","learning_trial","html-keyboard-response","109","1591951","0.0-3.0-1.51","28","5","
    <div class = 'grid-container'>
        <div class='header-text'> Friends </div>
        <div>
            Brianna
            <img width='150' style='border:2px black solid;' src='stims/img/CFD-LF-225-164-N.jpg'>
        </div>
        <div> &nbsp; + &nbsp; </div>
        <div>
            Jada
            <img width='150' style='border:2px black solid;' src='stims/img/CFD-BF-207-004-N.jpg'>
        </div>
        <div class='header-text'> &nbsp; </div>
    </div>
    ","null","3","false","3","stims/img/CFD-BF-207-004-N.jpg","Jada","5","stims/img/CFD-LF-225-164-N.jpg","Brianna","","",""
"","null","fixation","html-keyboard-response","110","1592459","0.0-3.0-0.52","28","5","<div style = ""font-size:60px;""> + </div>","null","","","","","","","","","","",""
"","null","learning_trial","html-keyboard-response","111","1594966","0.0-3.0-1.52","28","5","
    <div class = 'grid-container'>
        <div class='header-text'> Friends </div>
        <div>
            Samuel
            <img width='150' style='border:2px black solid;' src='stims/img/CFD-WM-229-129-N.jpg'>
        </div>
        <div> &nbsp; + &nbsp; </div>
        <div>
            Ava
            <img width='150' style='border:2px black solid;' src='stims/img/CFD-BF-222-240-N.jpg'>
        </div>
        <div class='header-text'> &nbsp; </div>
    </div>
    ","null","3","true","6","stims/img/CFD-WM-229-129-N.jpg","Samuel","7","stims/img/CFD-BF-222-240-N.jpg","Ava","","",""
"","null","fixation","html-keyboard-response","112","1595472","0.0-3.0-0.53","28","5","<div style = ""font-size:60px;""> + </div>","null","","","","","","","","","","",""
"","null","learning_trial","html-keyboard-response","113","1597976","0.0-3.0-1.53","28","5","
    <div class = 'grid-container'>
        <div class='header-text'> Friends </div>
        <div>
            Ivy
            <img width='150' style='border:2px black solid;' src='stims/img/CFD-AF-247-278-N.jpg'>
        </div>
        <div> &nbsp; + &nbsp; </div>
        <div>
            Tristan
            <img width='150' style='border:2px black solid;' src='stims/img/CFD-BM-239-136-N.jpg'>
        </div>
        <div class='header-text'> &nbsp; </div>
    </div>
    ","null","3","false","8","stims/img/CFD-BM-239-136-N.jpg","Tristan","10","stims/img/CFD-AF-247-278-N.jpg","Ivy","","",""
"","null","fixation","html-keyboard-response","114","1598483","0.0-3.0-0.54","28","5","<div style = ""font-size:60px;""> + </div>","null","","","","","","","","","","",""
"","null","learning_trial","html-keyboard-response","115","1600990","0.0-3.0-1.54","28","5","
    <div class = 'grid-container'>
        <div class='header-text'> Friends </div>
        <div>
            Ivy
            <img width='150' style='border:2px black solid;' src='stims/img/CFD-AF-247-278-N.jpg'>
        </div>
        <div> &nbsp; + &nbsp; </div>
        <div>
            Luis
            <img width='150' style='border:2px black solid;' src='stims/img/CFD-LM-211-128-N.jpg'>
        </div>
        <div class='header-text'> &nbsp; </div>
    </div>
    ","null","3","true","10","stims/img/CFD-AF-247-278-N.jpg","Ivy","12","stims/img/CFD-LM-211-128-N.jpg","Luis","","",""
"","null","fixation","html-keyboard-response","116","1601496","0.0-3.0-0.55","28","5","<div style = ""font-size:60px;""> + </div>","null","","","","","","","","","","",""
"","null","learning_trial","html-keyboard-response","117","1604002","0.0-3.0-1.55","28","5","
    <div class = 'grid-container'>
        <div class='header-text'> Friends </div>
        <div>
            Brianna
            <img width='150' style='border:2px black solid;' src='stims/img/CFD-LF-225-164-N.jpg'>
        </div>
        <div> &nbsp; + &nbsp; </div>
        <div>
            Jayden
            <img width='150' style='border:2px black solid;' src='stims/img/CFD-LM-200-045-N.jpg'>
        </div>
        <div class='header-text'> &nbsp; </div>
    </div>
    ","null","3","false","4","stims/img/CFD-LM-200-045-N.jpg","Jayden","5","stims/img/CFD-LF-225-164-N.jpg","Brianna","","",""
"","null","fixation","html-keyboard-response","118","1604509","0.0-3.0-0.56","28","5","<div style = ""font-size:60px;""> + </div>","null","","","","","","","","","","",""
"","null","learning_trial","html-keyboard-response","119","1607016","0.0-3.0-1.56","28","5","
    <div class = 'grid-container'>
        <div class='header-text'> Friends </div>
        <div>
            Sarah
            <img width='150' style='border:2px black solid;' src='stims/img/CFD-WF-230-158-N.jpg'>
        </div>
        <div> &nbsp; + &nbsp; </div>
        <div>
            Ivan
            <img width='150' style='border:2px black solid;' src='stims/img/CFD-AM-220-134-N.jpg'>
        </div>
        <div class='header-text'> &nbsp; </div>
    </div>
    ","null","3","false","1","stims/img/CFD-AM-220-134-N.jpg","Ivan","2","stims/img/CFD-WF-230-158-N.jpg","Sarah","","",""
"","null","fixation","html-keyboard-response","120","1607522","0.0-3.0-0.57","28","5","<div style = ""font-size:60px;""> + </div>","null","","","","","","","","","","",""
"","null","learning_trial","html-keyboard-response","121","1610029","0.0-3.0-1.57","28","5","
    <div class = 'grid-container'>
        <div class='header-text'> Friends </div>
        <div>
            Samuel
            <img width='150' style='border:2px black solid;' src='stims/img/CFD-WM-229-129-N.jpg'>
        </div>
        <div> &nbsp; + &nbsp; </div>
        <div>
            Jayden
            <img width='150' style='border:2px black solid;' src='stims/img/CFD-LM-200-045-N.jpg'>
        </div>
        <div class='header-text'> &nbsp; </div>
    </div>
    ","null","3","false","4","stims/img/CFD-LM-200-045-N.jpg","Jayden","6","stims/img/CFD-WM-229-129-N.jpg","Samuel","","",""
"","null","fixation","html-keyboard-response","122","1610531","0.0-3.0-0.58","28","5","<div style = ""font-size:60px;""> + </div>","null","","","","","","","","","","",""
"","null","learning_trial","html-keyboard-response","123","1613038","0.0-3.0-1.58","28","5","
    <div class = 'grid-container'>
        <div class='header-text'> Friends </div>
        <div>
            Jasmine
            <img width='150' style='border:2px black solid;' src='stims/img/CFD-AF-250-200-N.jpg'>
        </div>
        <div> &nbsp; + &nbsp; </div>
        <div>
            Tristan
            <img width='150' style='border:2px black solid;' src='stims/img/CFD-BM-239-136-N.jpg'>
        </div>
        <div class='header-text'> &nbsp; </div>
    </div>
    ","null","3","false","8","stims/img/CFD-BM-239-136-N.jpg","Tristan","9","stims/img/CFD-AF-250-200-N.jpg","Jasmine","","",""
"","null","fixation","html-keyboard-response","124","1613540","0.0-3.0-0.59","28","5","<div style = ""font-size:60px;""> + </div>","null","","","","","","","","","","",""
"","null","learning_trial","html-keyboard-response","125","1616046","0.0-3.0-1.59","28","5","
    <div class = 'grid-container'>
        <div class='header-text'> Friends </div>
        <div>
            Melanie
            <img width='150' style='border:2px black solid;' src='stims/img/CFD-LF-234-139-N.jpg'>
        </div>
        <div> &nbsp; + &nbsp; </div>
        <div>
            Ethan
            <img width='150' style='border:2px black solid;' src='stims/img/CFD-AM-242-176-N.jpg'>
        </div>
        <div class='header-text'> &nbsp; </div>
    </div>
    ","null","3","false","11","stims/img/CFD-AM-242-176-N.jpg","Ethan","13","stims/img/CFD-LF-234-139-N.jpg","Melanie","","",""
"","null","fixation","html-keyboard-response","126","1616552","0.0-3.0-0.60","28","5","<div style = ""font-size:60px;""> + </div>","null","","","","","","","","","","",""
"","null","learning_trial","html-keyboard-response","127","1619059","0.0-3.0-1.60","28","5","
    <div class = 'grid-container'>
        <div class='header-text'> Friends </div>
        <div>
            Luis
            <img width='150' style='border:2px black solid;' src='stims/img/CFD-LM-211-128-N.jpg'>
        </div>
        <div> &nbsp; + &nbsp; </div>
        <div>
            Melanie
            <img width='150' style='border:2px black solid;' src='stims/img/CFD-LF-234-139-N.jpg'>
        </div>
        <div class='header-text'> &nbsp; </div>
    </div>
    ","null","3","true","12","stims/img/CFD-LM-211-128-N.jpg","Luis","13","stims/img/CFD-LF-234-139-N.jpg","Melanie","","",""
"","null","fixation","html-keyboard-response","128","1619565","0.0-3.0-0.61","28","5","<div style = ""font-size:60px;""> + </div>","null","","","","","","","","","","",""
"","null","learning_trial","html-keyboard-response","129","1622072","0.0-3.0-1.61","28","5","
    <div class = 'grid-container'>
        <div class='header-text'> Friends </div>
        <div>
            Jada
            <img width='150' style='border:2px black solid;' src='stims/img/CFD-BF-207-004-N.jpg'>
        </div>
        <div> &nbsp; + &nbsp; </div>
        <div>
            Jayden
            <img width='150' style='border:2px black solid;' src='stims/img/CFD-LM-200-045-N.jpg'>
        </div>
        <div class='header-text'> &nbsp; </div>
    </div>
    ","null","3","true","3","stims/img/CFD-BF-207-004-N.jpg","Jada","4","stims/img/CFD-LM-200-045-N.jpg","Jayden","","",""
"","null","fixation","html-keyboard-response","130","1622573","0.0-3.0-0.62","28","5","<div style = ""font-size:60px;""> + </div>","null","","","","","","","","","","",""
"","null","learning_trial","html-keyboard-response","131","1625080","0.0-3.0-1.62","28","5","
    <div class = 'grid-container'>
        <div class='header-text'> Friends </div>
        <div>
            Jayden
            <img width='150' style='border:2px black solid;' src='stims/img/CFD-LM-200-045-N.jpg'>
        </div>
        <div> &nbsp; + &nbsp; </div>
        <div>
            Sarah
            <img width='150' style='border:2px black solid;' src='stims/img/CFD-WF-230-158-N.jpg'>
        </div>
        <div class='header-text'> &nbsp; </div>
    </div>
    ","null","3","false","2","stims/img/CFD-WF-230-158-N.jpg","Sarah","4","stims/img/CFD-LM-200-045-N.jpg","Jayden","","",""
"","null","fixation","html-keyboard-response","132","1625587","0.0-3.0-0.63","28","5","<div style = ""font-size:60px;""> + </div>","null","","","","","","","","","","",""
"","null","learning_trial","html-keyboard-response","133","1628094","0.0-3.0-1.63","28","5","
    <div class = 'grid-container'>
        <div class='header-text'> Friends </div>
        <div>
            Ava
            <img width='150' style='border:2px black solid;' src='stims/img/CFD-BF-222-240-N.jpg'>
        </div>
        <div> &nbsp; + &nbsp; </div>
        <div>
            Brianna
            <img width='150' style='border:2px black solid;' src='stims/img/CFD-LF-225-164-N.jpg'>
        </div>
        <div class='header-text'> &nbsp; </div>
    </div>
    ","null","3","false","5","stims/img/CFD-LF-225-164-N.jpg","Brianna","7","stims/img/CFD-BF-222-240-N.jpg","Ava","","",""
"","null","fixation","html-keyboard-response","134","1628600","0.0-3.0-0.64","28","5","<div style = ""font-size:60px;""> + </div>","null","","","","","","","","","","",""
"","null","learning_trial","html-keyboard-response","135","1631107","0.0-3.0-1.64","28","5","
    <div class = 'grid-container'>
        <div class='header-text'> Friends </div>
        <div>
            Luis
            <img width='150' style='border:2px black solid;' src='stims/img/CFD-LM-211-128-N.jpg'>
        </div>
        <div> &nbsp; + &nbsp; </div>
        <div>
            Ethan
            <img width='150' style='border:2px black solid;' src='stims/img/CFD-AM-242-176-N.jpg'>
        </div>
        <div class='header-text'> &nbsp; </div>
    </div>
    ","null","3","false","11","stims/img/CFD-AM-242-176-N.jpg","Ethan","12","stims/img/CFD-LM-211-128-N.jpg","Luis","","",""
"","null","fixation","html-keyboard-response","136","1631612","0.0-3.0-0.65","28","5","<div style = ""font-size:60px;""> + </div>","null","","","","","","","","","","",""
"","null","learning_trial","html-keyboard-response","137","1634119","0.0-3.0-1.65","28","5","
    <div class = 'grid-container'>
        <div class='header-text'> Friends </div>
        <div>
            Ethan
            <img width='150' style='border:2px black solid;' src='stims/img/CFD-AM-242-176-N.jpg'>
        </div>
        <div> &nbsp; + &nbsp; </div>
        <div>
            Jasmine
            <img width='150' style='border:2px black solid;' src='stims/img/CFD-AF-250-200-N.jpg'>
        </div>
        <div class='header-text'> &nbsp; </div>
    </div>
    ","null","3","false","9","stims/img/CFD-AF-250-200-N.jpg","Jasmine","11","stims/img/CFD-AM-242-176-N.jpg","Ethan","","",""
"","null","fixation","html-keyboard-response","138","1634625","0.0-3.0-0.66","28","5","<div style = ""font-size:60px;""> + </div>","null","","","","","","","","","","",""
"","null","learning_trial","html-keyboard-response","139","1637132","0.0-3.0-1.66","28","5","
    <div class = 'grid-container'>
        <div class='header-text'> Friends </div>
        <div>
            Jada
            <img width='150' style='border:2px black solid;' src='stims/img/CFD-BF-207-004-N.jpg'>
        </div>
        <div> &nbsp; + &nbsp; </div>
        <div>
            Sarah
            <img width='150' style='border:2px black solid;' src='stims/img/CFD-WF-230-158-N.jpg'>
        </div>
        <div class='header-text'> &nbsp; </div>
    </div>
    ","null","3","false","2","stims/img/CFD-WF-230-158-N.jpg","Sarah","3","stims/img/CFD-BF-207-004-N.jpg","Jada","","",""
"","null","fixation","html-keyboard-response","140","1637635","0.0-3.0-0.67","28","5","<div style = ""font-size:60px;""> + </div>","null","","","","","","","","","","",""
"","null","learning_trial","html-keyboard-response","141","1640141","0.0-3.0-1.67","28","5","
    <div class = 'grid-container'>
        <div class='header-text'> Friends </div>
        <div>
            Ivan
            <img width='150' style='border:2px black solid;' src='stims/img/CFD-AM-220-134-N.jpg'>
        </div>
        <div> &nbsp; + &nbsp; </div>
        <div>
            Tristan
            <img width='150' style='border:2px black solid;' src='stims/img/CFD-BM-239-136-N.jpg'>
        </div>
        <div class='header-text'> &nbsp; </div>
    </div>
    ","null","3","true","1","stims/img/CFD-AM-220-134-N.jpg","Ivan","8","stims/img/CFD-BM-239-136-N.jpg","Tristan","","",""
"","128339","break","html-keyboard-response","142","1768476","0.0-3.0-2.67-0.67","28","5","If you'd like to take a break before continuing, 
    please do so now. <p>To continue, please press the spacebar.</p>"," ","","","","","","","","","","",""
"","null","fixation","html-keyboard-response","143","1768982","0.0-3.0-0.68","28","5","<div style = ""font-size:60px;""> + </div>","null","","","","","","","","","","",""
"","null","learning_trial","html-keyboard-response","144","1771490","0.0-3.0-1.68","28","5","
    <div class = 'grid-container'>
        <div class='header-text'> Friends </div>
        <div>
            Sarah
            <img width='150' style='border:2px black solid;' src='stims/img/CFD-WF-230-158-N.jpg'>
        </div>
        <div> &nbsp; + &nbsp; </div>
        <div>
            Ivan
            <img width='150' style='border:2px black solid;' src='stims/img/CFD-AM-220-134-N.jpg'>
        </div>
        <div class='header-text'> &nbsp; </div>
    </div>
    ","null","4","false","1","stims/img/CFD-AM-220-134-N.jpg","Ivan","2","stims/img/CFD-WF-230-158-N.jpg","Sarah","","",""
"","null","fixation","html-keyboard-response","145","1771997","0.0-3.0-0.69","28","5","<div style = ""font-size:60px;""> + </div>","null","","","","","","","","","","",""
"","null","learning_trial","html-keyboard-response","146","1774504","0.0-3.0-1.69","28","5","
    <div class = 'grid-container'>
        <div class='header-text'> Friends </div>
        <div>
            Jayden
            <img width='150' style='border:2px black solid;' src='stims/img/CFD-LM-200-045-N.jpg'>
        </div>
        <div> &nbsp; + &nbsp; </div>
        <div>
            Sarah
            <img width='150' style='border:2px black solid;' src='stims/img/CFD-WF-230-158-N.jpg'>
        </div>
        <div class='header-text'> &nbsp; </div>
    </div>
    ","null","4","false","2","stims/img/CFD-WF-230-158-N.jpg","Sarah","4","stims/img/CFD-LM-200-045-N.jpg","Jayden","","",""
"","null","fixation","html-keyboard-response","147","1775010","0.0-3.0-0.70","28","5","<div style = ""font-size:60px;""> + </div>","null","","","","","","","","","","",""
"","null","learning_trial","html-keyboard-response","148","1777517","0.0-3.0-1.70","28","5","
    <div class = 'grid-container'>
        <div class='header-text'> Friends </div>
        <div>
            Jasmine
            <img width='150' style='border:2px black solid;' src='stims/img/CFD-AF-250-200-N.jpg'>
        </div>
        <div> &nbsp; + &nbsp; </div>
        <div>
            Ethan
            <img width='150' style='border:2px black solid;' src='stims/img/CFD-AM-242-176-N.jpg'>
        </div>
        <div class='header-text'> &nbsp; </div>
    </div>
    ","null","4","true","9","stims/img/CFD-AF-250-200-N.jpg","Jasmine","11","stims/img/CFD-AM-242-176-N.jpg","Ethan","","",""
"","null","fixation","html-keyboard-response","149","1778024","0.0-3.0-0.71","28","5","<div style = ""font-size:60px;""> + </div>","null","","","","","","","","","","",""
"","null","learning_trial","html-keyboard-response","150","1780530","0.0-3.0-1.71","28","5","
    <div class = 'grid-container'>
        <div class='header-text'> Friends </div>
        <div>
            Melanie
            <img width='150' style='border:2px black solid;' src='stims/img/CFD-LF-234-139-N.jpg'>
        </div>
        <div> &nbsp; + &nbsp; </div>
        <div>
            Ethan
            <img width='150' style='border:2px black solid;' src='stims/img/CFD-AM-242-176-N.jpg'>
        </div>
        <div class='header-text'> &nbsp; </div>
    </div>
    ","null","4","false","11","stims/img/CFD-AM-242-176-N.jpg","Ethan","13","stims/img/CFD-LF-234-139-N.jpg","Melanie","","",""
"","null","fixation","html-keyboard-response","151","1781037","0.0-3.0-0.72","28","5","<div style = ""font-size:60px;""> + </div>","null","","","","","","","","","","",""
"","null","learning_trial","html-keyboard-response","152","1783544","0.0-3.0-1.72","28","5","
    <div class = 'grid-container'>
        <div class='header-text'> Friends </div>
        <div>
            Jada
            <img width='150' style='border:2px black solid;' src='stims/img/CFD-BF-207-004-N.jpg'>
        </div>
        <div> &nbsp; + &nbsp; </div>
        <div>
            Jayden
            <img width='150' style='border:2px black solid;' src='stims/img/CFD-LM-200-045-N.jpg'>
        </div>
        <div class='header-text'> &nbsp; </div>
    </div>
    ","null","4","true","3","stims/img/CFD-BF-207-004-N.jpg","Jada","4","stims/img/CFD-LM-200-045-N.jpg","Jayden","","",""
"","null","fixation","html-keyboard-response","153","1784050","0.0-3.0-0.73","28","5","<div style = ""font-size:60px;""> + </div>","null","","","","","","","","","","",""
"","null","learning_trial","html-keyboard-response","154","1786558","0.0-3.0-1.73","28","5","
    <div class = 'grid-container'>
        <div class='header-text'> Friends </div>
        <div>
            Luis
            <img width='150' style='border:2px black solid;' src='stims/img/CFD-LM-211-128-N.jpg'>
        </div>
        <div> &nbsp; + &nbsp; </div>
        <div>
            Ivy
            <img width='150' style='border:2px black solid;' src='stims/img/CFD-AF-247-278-N.jpg'>
        </div>
        <div class='header-text'> &nbsp; </div>
    </div>
    ","null","4","false","10","stims/img/CFD-AF-247-278-N.jpg","Ivy","12","stims/img/CFD-LM-211-128-N.jpg","Luis","","",""
"","null","fixation","html-keyboard-response","155","1787063","0.0-3.0-0.74","28","5","<div style = ""font-size:60px;""> + </div>","null","","","","","","","","","","",""
"","null","learning_trial","html-keyboard-response","156","1789571","0.0-3.0-1.74","28","5","
    <div class = 'grid-container'>
        <div class='header-text'> Friends </div>
        <div>
            Jada
            <img width='150' style='border:2px black solid;' src='stims/img/CFD-BF-207-004-N.jpg'>
        </div>
        <div> &nbsp; + &nbsp; </div>
        <div>
            Sarah
            <img width='150' style='border:2px black solid;' src='stims/img/CFD-WF-230-158-N.jpg'>
        </div>
        <div class='header-text'> &nbsp; </div>
    </div>
    ","null","4","false","2","stims/img/CFD-WF-230-158-N.jpg","Sarah","3","stims/img/CFD-BF-207-004-N.jpg","Jada","","",""
"","null","fixation","html-keyboard-response","157","1790077","0.0-3.0-0.75","28","5","<div style = ""font-size:60px;""> + </div>","null","","","","","","","","","","",""
"","null","learning_trial","html-keyboard-response","158","1792584","0.0-3.0-1.75","28","5","
    <div class = 'grid-container'>
        <div class='header-text'> Friends </div>
        <div>
            Tristan
            <img width='150' style='border:2px black solid;' src='stims/img/CFD-BM-239-136-N.jpg'>
        </div>
        <div> &nbsp; + &nbsp; </div>
        <div>
            Ivan
            <img width='150' style='border:2px black solid;' src='stims/img/CFD-AM-220-134-N.jpg'>
        </div>
        <div class='header-text'> &nbsp; </div>
    </div>
    ","null","4","false","1","stims/img/CFD-AM-220-134-N.jpg","Ivan","8","stims/img/CFD-BM-239-136-N.jpg","Tristan","","",""
"","null","fixation","html-keyboard-response","159","1793090","0.0-3.0-0.76","28","5","<div style = ""font-size:60px;""> + </div>","null","","","","","","","","","","",""
"","null","learning_trial","html-keyboard-response","160","1795595","0.0-3.0-1.76","28","5","
    <div class = 'grid-container'>
        <div class='header-text'> Friends </div>
        <div>
            Jada
            <img width='150' style='border:2px black solid;' src='stims/img/CFD-BF-207-004-N.jpg'>
        </div>
        <div> &nbsp; + &nbsp; </div>
        <div>
            Brianna
            <img width='150' style='border:2px black solid;' src='stims/img/CFD-LF-225-164-N.jpg'>
        </div>
        <div class='header-text'> &nbsp; </div>
    </div>
    ","null","4","true","3","stims/img/CFD-BF-207-004-N.jpg","Jada","5","stims/img/CFD-LF-225-164-N.jpg","Brianna","","",""
"","null","fixation","html-keyboard-response","161","1796100","0.0-3.0-0.77","28","5","<div style = ""font-size:60px;""> + </div>","null","","","","","","","","","","",""
"","null","learning_trial","html-keyboard-response","162","1798605","0.0-3.0-1.77","28","5","
    <div class = 'grid-container'>
        <div class='header-text'> Friends </div>
        <div>
            Jayden
            <img width='150' style='border:2px black solid;' src='stims/img/CFD-LM-200-045-N.jpg'>
        </div>
        <div> &nbsp; + &nbsp; </div>
        <div>
            Brianna
            <img width='150' style='border:2px black solid;' src='stims/img/CFD-LF-225-164-N.jpg'>
        </div>
        <div class='header-text'> &nbsp; </div>
    </div>
    ","null","4","true","4","stims/img/CFD-LM-200-045-N.jpg","Jayden","5","stims/img/CFD-LF-225-164-N.jpg","Brianna","","",""
"","null","fixation","html-keyboard-response","163","1799108","0.0-3.0-0.78","28","5","<div style = ""font-size:60px;""> + </div>","null","","","","","","","","","","",""
"","null","learning_trial","html-keyboard-response","164","1801615","0.0-3.0-1.78","28","5","
    <div class = 'grid-container'>
        <div class='header-text'> Friends </div>
        <div>
            Ivy
            <img width='150' style='border:2px black solid;' src='stims/img/CFD-AF-247-278-N.jpg'>
        </div>
        <div> &nbsp; + &nbsp; </div>
        <div>
            Tristan
            <img width='150' style='border:2px black solid;' src='stims/img/CFD-BM-239-136-N.jpg'>
        </div>
        <div class='header-text'> &nbsp; </div>
    </div>
    ","null","4","false","8","stims/img/CFD-BM-239-136-N.jpg","Tristan","10","stims/img/CFD-AF-247-278-N.jpg","Ivy","","",""
"","null","fixation","html-keyboard-response","165","1802121","0.0-3.0-0.79","28","5","<div style = ""font-size:60px;""> + </div>","null","","","","","","","","","","",""
"","null","learning_trial","html-keyboard-response","166","1804628","0.0-3.0-1.79","28","5","
    <div class = 'grid-container'>
        <div class='header-text'> Friends </div>
        <div>
            Jayden
            <img width='150' style='border:2px black solid;' src='stims/img/CFD-LM-200-045-N.jpg'>
        </div>
        <div> &nbsp; + &nbsp; </div>
        <div>
            Samuel
            <img width='150' style='border:2px black solid;' src='stims/img/CFD-WM-229-129-N.jpg'>
        </div>
        <div class='header-text'> &nbsp; </div>
    </div>
    ","null","4","true","4","stims/img/CFD-LM-200-045-N.jpg","Jayden","6","stims/img/CFD-WM-229-129-N.jpg","Samuel","","",""
"","null","fixation","html-keyboard-response","167","1805133","0.0-3.0-0.80","28","5","<div style = ""font-size:60px;""> + </div>","null","","","","","","","","","","",""
"","null","learning_trial","html-keyboard-response","168","1807640","0.0-3.0-1.80","28","5","
    <div class = 'grid-container'>
        <div class='header-text'> Friends </div>
        <div>
            Ethan
            <img width='150' style='border:2px black solid;' src='stims/img/CFD-AM-242-176-N.jpg'>
        </div>
        <div> &nbsp; + &nbsp; </div>
        <div>
            Luis
            <img width='150' style='border:2px black solid;' src='stims/img/CFD-LM-211-128-N.jpg'>
        </div>
        <div class='header-text'> &nbsp; </div>
    </div>
    ","null","4","true","11","stims/img/CFD-AM-242-176-N.jpg","Ethan","12","stims/img/CFD-LM-211-128-N.jpg","Luis","","",""
"","null","fixation","html-keyboard-response","169","1808146","0.0-3.0-0.81","28","5","<div style = ""font-size:60px;""> + </div>","null","","","","","","","","","","",""
"","null","learning_trial","html-keyboard-response","170","1810653","0.0-3.0-1.81","28","5","
    <div class = 'grid-container'>
        <div class='header-text'> Friends </div>
        <div>
            Ava
            <img width='150' style='border:2px black solid;' src='stims/img/CFD-BF-222-240-N.jpg'>
        </div>
        <div> &nbsp; + &nbsp; </div>
        <div>
            Brianna
            <img width='150' style='border:2px black solid;' src='stims/img/CFD-LF-225-164-N.jpg'>
        </div>
        <div class='header-text'> &nbsp; </div>
    </div>
    ","null","4","false","5","stims/img/CFD-LF-225-164-N.jpg","Brianna","7","stims/img/CFD-BF-222-240-N.jpg","Ava","","",""
"","null","fixation","html-keyboard-response","171","1811160","0.0-3.0-0.82","28","5","<div style = ""font-size:60px;""> + </div>","null","","","","","","","","","","",""
"","null","learning_trial","html-keyboard-response","172","1813665","0.0-3.0-1.82","28","5","
    <div class = 'grid-container'>
        <div class='header-text'> Friends </div>
        <div>
            Tristan
            <img width='150' style='border:2px black solid;' src='stims/img/CFD-BM-239-136-N.jpg'>
        </div>
        <div> &nbsp; + &nbsp; </div>
        <div>
            Jasmine
            <img width='150' style='border:2px black solid;' src='stims/img/CFD-AF-250-200-N.jpg'>
        </div>
        <div class='header-text'> &nbsp; </div>
    </div>
    ","null","4","true","8","stims/img/CFD-BM-239-136-N.jpg","Tristan","9","stims/img/CFD-AF-250-200-N.jpg","Jasmine","","",""
"","null","fixation","html-keyboard-response","173","1814167","0.0-3.0-0.83","28","5","<div style = ""font-size:60px;""> + </div>","null","","","","","","","","","","",""
"","null","learning_trial","html-keyboard-response","174","1816675","0.0-3.0-1.83","28","5","
    <div class = 'grid-container'>
        <div class='header-text'> Friends </div>
        <div>
            Luis
            <img width='150' style='border:2px black solid;' src='stims/img/CFD-LM-211-128-N.jpg'>
        </div>
        <div> &nbsp; + &nbsp; </div>
        <div>
            Melanie
            <img width='150' style='border:2px black solid;' src='stims/img/CFD-LF-234-139-N.jpg'>
        </div>
        <div class='header-text'> &nbsp; </div>
    </div>
    ","null","4","true","12","stims/img/CFD-LM-211-128-N.jpg","Luis","13","stims/img/CFD-LF-234-139-N.jpg","Melanie","","",""
"","null","fixation","html-keyboard-response","175","1817181","0.0-3.0-0.84","28","5","<div style = ""font-size:60px;""> + </div>","null","","","","","","","","","","",""
"","null","learning_trial","html-keyboard-response","176","1819688","0.0-3.0-1.84","28","5","
    <div class = 'grid-container'>
        <div class='header-text'> Friends </div>
        <div>
            Samuel
            <img width='150' style='border:2px black solid;' src='stims/img/CFD-WM-229-129-N.jpg'>
        </div>
        <div> &nbsp; + &nbsp; </div>
        <div>
            Ava
            <img width='150' style='border:2px black solid;' src='stims/img/CFD-BF-222-240-N.jpg'>
        </div>
        <div class='header-text'> &nbsp; </div>
    </div>
    ","null","4","true","6","stims/img/CFD-WM-229-129-N.jpg","Samuel","7","stims/img/CFD-BF-222-240-N.jpg","Ava","","",""
"","1749","break","html-keyboard-response","177","1821437","0.0-3.0-2.84-0.84","28","5","If you'd like to take a break before continuing, 
    please do so now. <p>To continue, please press the spacebar.</p>"," ","","","","","","","","","","",""
"","null","fixation","html-keyboard-response","178","1821943","0.0-3.0-0.85","28","5","<div style = ""font-size:60px;""> + </div>","null","","","","","","","","","","",""
"","null","learning_trial","html-keyboard-response","179","1824449","0.0-3.0-1.85","28","5","
    <div class = 'grid-container'>
        <div class='header-text'> Friends </div>
        <div>
            Luis
            <img width='150' style='border:2px black solid;' src='stims/img/CFD-LM-211-128-N.jpg'>
        </div>
        <div> &nbsp; + &nbsp; </div>
        <div>
            Melanie
            <img width='150' style='border:2px black solid;' src='stims/img/CFD-LF-234-139-N.jpg'>
        </div>
        <div class='header-text'> &nbsp; </div>
    </div>
    ","null","5","true","12","stims/img/CFD-LM-211-128-N.jpg","Luis","13","stims/img/CFD-LF-234-139-N.jpg","Melanie","","",""
"","null","fixation","html-keyboard-response","180","1824952","0.0-3.0-0.86","28","5","<div style = ""font-size:60px;""> + </div>","null","","","","","","","","","","",""
"","null","learning_trial","html-keyboard-response","181","1827458","0.0-3.0-1.86","28","5","
    <div class = 'grid-container'>
        <div class='header-text'> Friends </div>
        <div>
            Jayden
            <img width='150' style='border:2px black solid;' src='stims/img/CFD-LM-200-045-N.jpg'>
        </div>
        <div> &nbsp; + &nbsp; </div>
        <div>
            Jada
            <img width='150' style='border:2px black solid;' src='stims/img/CFD-BF-207-004-N.jpg'>
        </div>
        <div class='header-text'> &nbsp; </div>
    </div>
    ","null","5","false","3","stims/img/CFD-BF-207-004-N.jpg","Jada","4","stims/img/CFD-LM-200-045-N.jpg","Jayden","","",""
"","null","fixation","html-keyboard-response","182","1827964","0.0-3.0-0.87","28","5","<div style = ""font-size:60px;""> + </div>","null","","","","","","","","","","",""
"","null","learning_trial","html-keyboard-response","183","1830471","0.0-3.0-1.87","28","5","
    <div class = 'grid-container'>
        <div class='header-text'> Friends </div>
        <div>
            Samuel
            <img width='150' style='border:2px black solid;' src='stims/img/CFD-WM-229-129-N.jpg'>
        </div>
        <div> &nbsp; + &nbsp; </div>
        <div>
            Jayden
            <img width='150' style='border:2px black solid;' src='stims/img/CFD-LM-200-045-N.jpg'>
        </div>
        <div class='header-text'> &nbsp; </div>
    </div>
    ","null","5","false","4","stims/img/CFD-LM-200-045-N.jpg","Jayden","6","stims/img/CFD-WM-229-129-N.jpg","Samuel","","",""
"","null","fixation","html-keyboard-response","184","1830978","0.0-3.0-0.88","28","5","<div style = ""font-size:60px;""> + </div>","null","","","","","","","","","","",""
"","null","learning_trial","html-keyboard-response","185","1833486","0.0-3.0-1.88","28","5","
    <div class = 'grid-container'>
        <div class='header-text'> Friends </div>
        <div>
            Sarah
            <img width='150' style='border:2px black solid;' src='stims/img/CFD-WF-230-158-N.jpg'>
        </div>
        <div> &nbsp; + &nbsp; </div>
        <div>
            Ivan
            <img width='150' style='border:2px black solid;' src='stims/img/CFD-AM-220-134-N.jpg'>
        </div>
        <div class='header-text'> &nbsp; </div>
    </div>
    ","null","5","false","1","stims/img/CFD-AM-220-134-N.jpg","Ivan","2","stims/img/CFD-WF-230-158-N.jpg","Sarah","","",""
"","null","fixation","html-keyboard-response","186","1833991","0.0-3.0-0.89","28","5","<div style = ""font-size:60px;""> + </div>","null","","","","","","","","","","",""
"","null","learning_trial","html-keyboard-response","187","1836498","0.0-3.0-1.89","28","5","
    <div class = 'grid-container'>
        <div class='header-text'> Friends </div>
        <div>
            Ivan
            <img width='150' style='border:2px black solid;' src='stims/img/CFD-AM-220-134-N.jpg'>
        </div>
        <div> &nbsp; + &nbsp; </div>
        <div>
            Tristan
            <img width='150' style='border:2px black solid;' src='stims/img/CFD-BM-239-136-N.jpg'>
        </div>
        <div class='header-text'> &nbsp; </div>
    </div>
    ","null","5","true","1","stims/img/CFD-AM-220-134-N.jpg","Ivan","8","stims/img/CFD-BM-239-136-N.jpg","Tristan","","",""
"","null","fixation","html-keyboard-response","188","1837005","0.0-3.0-0.90","28","5","<div style = ""font-size:60px;""> + </div>","null","","","","","","","","","","",""
"","null","learning_trial","html-keyboard-response","189","1839512","0.0-3.0-1.90","28","5","
    <div class = 'grid-container'>
        <div class='header-text'> Friends </div>
        <div>
            Jada
            <img width='150' style='border:2px black solid;' src='stims/img/CFD-BF-207-004-N.jpg'>
        </div>
        <div> &nbsp; + &nbsp; </div>
        <div>
            Brianna
            <img width='150' style='border:2px black solid;' src='stims/img/CFD-LF-225-164-N.jpg'>
        </div>
        <div class='header-text'> &nbsp; </div>
    </div>
    ","null","5","true","3","stims/img/CFD-BF-207-004-N.jpg","Jada","5","stims/img/CFD-LF-225-164-N.jpg","Brianna","","",""
"","null","fixation","html-keyboard-response","190","1840018","0.0-3.0-0.91","28","5","<div style = ""font-size:60px;""> + </div>","null","","","","","","","","","","",""
"","null","learning_trial","html-keyboard-response","191","1842525","0.0-3.0-1.91","28","5","
    <div class = 'grid-container'>
        <div class='header-text'> Friends </div>
        <div>
            Tristan
            <img width='150' style='border:2px black solid;' src='stims/img/CFD-BM-239-136-N.jpg'>
        </div>
        <div> &nbsp; + &nbsp; </div>
        <div>
            Jasmine
            <img width='150' style='border:2px black solid;' src='stims/img/CFD-AF-250-200-N.jpg'>
        </div>
        <div class='header-text'> &nbsp; </div>
    </div>
    ","null","5","true","8","stims/img/CFD-BM-239-136-N.jpg","Tristan","9","stims/img/CFD-AF-250-200-N.jpg","Jasmine","","",""
"","null","fixation","html-keyboard-response","192","1843032","0.0-3.0-0.92","28","5","<div style = ""font-size:60px;""> + </div>","null","","","","","","","","","","",""
"","null","learning_trial","html-keyboard-response","193","1845539","0.0-3.0-1.92","28","5","
    <div class = 'grid-container'>
        <div class='header-text'> Friends </div>
        <div>
            Ethan
            <img width='150' style='border:2px black solid;' src='stims/img/CFD-AM-242-176-N.jpg'>
        </div>
        <div> &nbsp; + &nbsp; </div>
        <div>
            Luis
            <img width='150' style='border:2px black solid;' src='stims/img/CFD-LM-211-128-N.jpg'>
        </div>
        <div class='header-text'> &nbsp; </div>
    </div>
    ","null","5","true","11","stims/img/CFD-AM-242-176-N.jpg","Ethan","12","stims/img/CFD-LM-211-128-N.jpg","Luis","","",""
"","null","fixation","html-keyboard-response","194","1846045","0.0-3.0-0.93","28","5","<div style = ""font-size:60px;""> + </div>","null","","","","","","","","","","",""
"","null","learning_trial","html-keyboard-response","195","1848549","0.0-3.0-1.93","28","5","
    <div class = 'grid-container'>
        <div class='header-text'> Friends </div>
        <div>
            Luis
            <img width='150' style='border:2px black solid;' src='stims/img/CFD-LM-211-128-N.jpg'>
        </div>
        <div> &nbsp; + &nbsp; </div>
        <div>
            Ivy
            <img width='150' style='border:2px black solid;' src='stims/img/CFD-AF-247-278-N.jpg'>
        </div>
        <div class='header-text'> &nbsp; </div>
    </div>
    ","null","5","false","10","stims/img/CFD-AF-247-278-N.jpg","Ivy","12","stims/img/CFD-LM-211-128-N.jpg","Luis","","",""
"","null","fixation","html-keyboard-response","196","1849055","0.0-3.0-0.94","28","5","<div style = ""font-size:60px;""> + </div>","null","","","","","","","","","","",""
"","null","learning_trial","html-keyboard-response","197","1851561","0.0-3.0-1.94","28","5","
    <div class = 'grid-container'>
        <div class='header-text'> Friends </div>
        <div>
            Tristan
            <img width='150' style='border:2px black solid;' src='stims/img/CFD-BM-239-136-N.jpg'>
        </div>
        <div> &nbsp; + &nbsp; </div>
        <div>
            Ivy
            <img width='150' style='border:2px black solid;' src='stims/img/CFD-AF-247-278-N.jpg'>
        </div>
        <div class='header-text'> &nbsp; </div>
    </div>
    ","null","5","true","8","stims/img/CFD-BM-239-136-N.jpg","Tristan","10","stims/img/CFD-AF-247-278-N.jpg","Ivy","","",""
"","null","fixation","html-keyboard-response","198","1852068","0.0-3.0-0.95","28","5","<div style = ""font-size:60px;""> + </div>","null","","","","","","","","","","",""
"","null","learning_trial","html-keyboard-response","199","1854574","0.0-3.0-1.95","28","5","
    <div class = 'grid-container'>
        <div class='header-text'> Friends </div>
        <div>
            Jasmine
            <img width='150' style='border:2px black solid;' src='stims/img/CFD-AF-250-200-N.jpg'>
        </div>
        <div> &nbsp; + &nbsp; </div>
        <div>
            Ethan
            <img width='150' style='border:2px black solid;' src='stims/img/CFD-AM-242-176-N.jpg'>
        </div>
        <div class='header-text'> &nbsp; </div>
    </div>
    ","null","5","true","9","stims/img/CFD-AF-250-200-N.jpg","Jasmine","11","stims/img/CFD-AM-242-176-N.jpg","Ethan","","",""
"","null","fixation","html-keyboard-response","200","1855080","0.0-3.0-0.96","28","5","<div style = ""font-size:60px;""> + </div>","null","","","","","","","","","","",""
"","null","learning_trial","html-keyboard-response","201","1857587","0.0-3.0-1.96","28","5","
    <div class = 'grid-container'>
        <div class='header-text'> Friends </div>
        <div>
            Jada
            <img width='150' style='border:2px black solid;' src='stims/img/CFD-BF-207-004-N.jpg'>
        </div>
        <div> &nbsp; + &nbsp; </div>
        <div>
            Sarah
            <img width='150' style='border:2px black solid;' src='stims/img/CFD-WF-230-158-N.jpg'>
        </div>
        <div class='header-text'> &nbsp; </div>
    </div>
    ","null","5","false","2","stims/img/CFD-WF-230-158-N.jpg","Sarah","3","stims/img/CFD-BF-207-004-N.jpg","Jada","","",""
"","null","fixation","html-keyboard-response","202","1858093","0.0-3.0-0.97","28","5","<div style = ""font-size:60px;""> + </div>","null","","","","","","","","","","",""
"","null","learning_trial","html-keyboard-response","203","1860600","0.0-3.0-1.97","28","5","
    <div class = 'grid-container'>
        <div class='header-text'> Friends </div>
        <div>
            Sarah
            <img width='150' style='border:2px black solid;' src='stims/img/CFD-WF-230-158-N.jpg'>
        </div>
        <div> &nbsp; + &nbsp; </div>
        <div>
            Jayden
            <img width='150' style='border:2px black solid;' src='stims/img/CFD-LM-200-045-N.jpg'>
        </div>
        <div class='header-text'> &nbsp; </div>
    </div>
    ","null","5","true","2","stims/img/CFD-WF-230-158-N.jpg","Sarah","4","stims/img/CFD-LM-200-045-N.jpg","Jayden","","",""
"","null","fixation","html-keyboard-response","204","1861101","0.0-3.0-0.98","28","5","<div style = ""font-size:60px;""> + </div>","null","","","","","","","","","","",""
"","null","learning_trial","html-keyboard-response","205","1863608","0.0-3.0-1.98","28","5","
    <div class = 'grid-container'>
        <div class='header-text'> Friends </div>
        <div>
            Brianna
            <img width='150' style='border:2px black solid;' src='stims/img/CFD-LF-225-164-N.jpg'>
        </div>
        <div> &nbsp; + &nbsp; </div>
        <div>
            Ava
            <img width='150' style='border:2px black solid;' src='stims/img/CFD-BF-222-240-N.jpg'>
        </div>
        <div class='header-text'> &nbsp; </div>
    </div>
    ","null","5","true","5","stims/img/CFD-LF-225-164-N.jpg","Brianna","7","stims/img/CFD-BF-222-240-N.jpg","Ava","","",""
"","null","fixation","html-keyboard-response","206","1864115","0.0-3.0-0.99","28","5","<div style = ""font-size:60px;""> + </div>","null","","","","","","","","","","",""
"","null","learning_trial","html-keyboard-response","207","1866622","0.0-3.0-1.99","28","5","
    <div class = 'grid-container'>
        <div class='header-text'> Friends </div>
        <div>
            Ethan
            <img width='150' style='border:2px black solid;' src='stims/img/CFD-AM-242-176-N.jpg'>
        </div>
        <div> &nbsp; + &nbsp; </div>
        <div>
            Melanie
            <img width='150' style='border:2px black solid;' src='stims/img/CFD-LF-234-139-N.jpg'>
        </div>
        <div class='header-text'> &nbsp; </div>
    </div>
    ","null","5","true","11","stims/img/CFD-AM-242-176-N.jpg","Ethan","13","stims/img/CFD-LF-234-139-N.jpg","Melanie","","",""
"","null","fixation","html-keyboard-response","208","1867128","0.0-3.0-0.100","28","5","<div style = ""font-size:60px;""> + </div>","null","","","","","","","","","","",""
"","null","learning_trial","html-keyboard-response","209","1869635","0.0-3.0-1.100","28","5","
    <div class = 'grid-container'>
        <div class='header-text'> Friends </div>
        <div>
            Samuel
            <img width='150' style='border:2px black solid;' src='stims/img/CFD-WM-229-129-N.jpg'>
        </div>
        <div> &nbsp; + &nbsp; </div>
        <div>
            Ava
            <img width='150' style='border:2px black solid;' src='stims/img/CFD-BF-222-240-N.jpg'>
        </div>
        <div class='header-text'> &nbsp; </div>
    </div>
    ","null","5","true","6","stims/img/CFD-WM-229-129-N.jpg","Samuel","7","stims/img/CFD-BF-222-240-N.jpg","Ava","","",""
"","null","fixation","html-keyboard-response","210","1870141","0.0-3.0-0.101","28","5","<div style = ""font-size:60px;""> + </div>","null","","","","","","","","","","",""
"","null","learning_trial","html-keyboard-response","211","1872647","0.0-3.0-1.101","28","5","
    <div class = 'grid-container'>
        <div class='header-text'> Friends </div>
        <div>
            Jayden
            <img width='150' style='border:2px black solid;' src='stims/img/CFD-LM-200-045-N.jpg'>
        </div>
        <div> &nbsp; + &nbsp; </div>
        <div>
            Brianna
            <img width='150' style='border:2px black solid;' src='stims/img/CFD-LF-225-164-N.jpg'>
        </div>
        <div class='header-text'> &nbsp; </div>
    </div>
    ","null","5","true","4","stims/img/CFD-LM-200-045-N.jpg","Jayden","5","stims/img/CFD-LF-225-164-N.jpg","Brianna","","",""
"","980","break","html-keyboard-response","212","1873628","0.0-3.0-2.101-0.101","28","5","If you'd like to take a break before continuing, 
    please do so now. <p>To continue, please press the spacebar.</p>"," ","","","","","","","","","","",""
"","null","fixation","html-keyboard-response","213","1874134","0.0-3.0-0.102","28","5","<div style = ""font-size:60px;""> + </div>","null","","","","","","","","","","",""
"","null","learning_trial","html-keyboard-response","214","1876642","0.0-3.0-1.102","28","5","
    <div class = 'grid-container'>
        <div class='header-text'> Friends </div>
        <div>
            Ivan
            <img width='150' style='border:2px black solid;' src='stims/img/CFD-AM-220-134-N.jpg'>
        </div>
        <div> &nbsp; + &nbsp; </div>
        <div>
            Sarah
            <img width='150' style='border:2px black solid;' src='stims/img/CFD-WF-230-158-N.jpg'>
        </div>
        <div class='header-text'> &nbsp; </div>
    </div>
    ","null","6","true","1","stims/img/CFD-AM-220-134-N.jpg","Ivan","2","stims/img/CFD-WF-230-158-N.jpg","Sarah","","",""
"","null","fixation","html-keyboard-response","215","1877143","0.0-3.0-0.103","28","5","<div style = ""font-size:60px;""> + </div>","null","","","","","","","","","","",""
"","null","learning_trial","html-keyboard-response","216","1879651","0.0-3.0-1.103","28","5","
    <div class = 'grid-container'>
        <div class='header-text'> Friends </div>
        <div>
            Luis
            <img width='150' style='border:2px black solid;' src='stims/img/CFD-LM-211-128-N.jpg'>
        </div>
        <div> &nbsp; + &nbsp; </div>
        <div>
            Ethan
            <img width='150' style='border:2px black solid;' src='stims/img/CFD-AM-242-176-N.jpg'>
        </div>
        <div class='header-text'> &nbsp; </div>
    </div>
    ","null","6","false","11","stims/img/CFD-AM-242-176-N.jpg","Ethan","12","stims/img/CFD-LM-211-128-N.jpg","Luis","","",""
"","null","fixation","html-keyboard-response","217","1880157","0.0-3.0-0.104","28","5","<div style = ""font-size:60px;""> + </div>","null","","","","","","","","","","",""
"","null","learning_trial","html-keyboard-response","218","1882665","0.0-3.0-1.104","28","5","
    <div class = 'grid-container'>
        <div class='header-text'> Friends </div>
        <div>
            Ava
            <img width='150' style='border:2px black solid;' src='stims/img/CFD-BF-222-240-N.jpg'>
        </div>
        <div> &nbsp; + &nbsp; </div>
        <div>
            Samuel
            <img width='150' style='border:2px black solid;' src='stims/img/CFD-WM-229-129-N.jpg'>
        </div>
        <div class='header-text'> &nbsp; </div>
    </div>
    ","null","6","false","6","stims/img/CFD-WM-229-129-N.jpg","Samuel","7","stims/img/CFD-BF-222-240-N.jpg","Ava","","",""
"","null","fixation","html-keyboard-response","219","1883171","0.0-3.0-0.105","28","5","<div style = ""font-size:60px;""> + </div>","null","","","","","","","","","","",""
"","null","learning_trial","html-keyboard-response","220","1885677","0.0-3.0-1.105","28","5","
    <div class = 'grid-container'>
        <div class='header-text'> Friends </div>
        <div>
            Tristan
            <img width='150' style='border:2px black solid;' src='stims/img/CFD-BM-239-136-N.jpg'>
        </div>
        <div> &nbsp; + &nbsp; </div>
        <div>
            Jasmine
            <img width='150' style='border:2px black solid;' src='stims/img/CFD-AF-250-200-N.jpg'>
        </div>
        <div class='header-text'> &nbsp; </div>
    </div>
    ","null","6","true","8","stims/img/CFD-BM-239-136-N.jpg","Tristan","9","stims/img/CFD-AF-250-200-N.jpg","Jasmine","","",""
"","null","fixation","html-keyboard-response","221","1886183","0.0-3.0-0.106","28","5","<div style = ""font-size:60px;""> + </div>","null","","","","","","","","","","",""
"","null","learning_trial","html-keyboard-response","222","1888689","0.0-3.0-1.106","28","5","
    <div class = 'grid-container'>
        <div class='header-text'> Friends </div>
        <div>
            Jayden
            <img width='150' style='border:2px black solid;' src='stims/img/CFD-LM-200-045-N.jpg'>
        </div>
        <div> &nbsp; + &nbsp; </div>
        <div>
            Samuel
            <img width='150' style='border:2px black solid;' src='stims/img/CFD-WM-229-129-N.jpg'>
        </div>
        <div class='header-text'> &nbsp; </div>
    </div>
    ","null","6","true","4","stims/img/CFD-LM-200-045-N.jpg","Jayden","6","stims/img/CFD-WM-229-129-N.jpg","Samuel","","",""
"","null","fixation","html-keyboard-response","223","1889196","0.0-3.0-0.107","28","5","<div style = ""font-size:60px;""> + </div>","null","","","","","","","","","","",""
"","null","learning_trial","html-keyboard-response","224","1891703","0.0-3.0-1.107","28","5","
    <div class = 'grid-container'>
        <div class='header-text'> Friends </div>
        <div>
            Ava
            <img width='150' style='border:2px black solid;' src='stims/img/CFD-BF-222-240-N.jpg'>
        </div>
        <div> &nbsp; + &nbsp; </div>
        <div>
            Brianna
            <img width='150' style='border:2px black solid;' src='stims/img/CFD-LF-225-164-N.jpg'>
        </div>
        <div class='header-text'> &nbsp; </div>
    </div>
    ","null","6","false","5","stims/img/CFD-LF-225-164-N.jpg","Brianna","7","stims/img/CFD-BF-222-240-N.jpg","Ava","","",""
"","null","fixation","html-keyboard-response","225","1892204","0.0-3.0-0.108","28","5","<div style = ""font-size:60px;""> + </div>","null","","","","","","","","","","",""
"","null","learning_trial","html-keyboard-response","226","1894712","0.0-3.0-1.108","28","5","
    <div class = 'grid-container'>
        <div class='header-text'> Friends </div>
        <div>
            Tristan
            <img width='150' style='border:2px black solid;' src='stims/img/CFD-BM-239-136-N.jpg'>
        </div>
        <div> &nbsp; + &nbsp; </div>
        <div>
            Ivy
            <img width='150' style='border:2px black solid;' src='stims/img/CFD-AF-247-278-N.jpg'>
        </div>
        <div class='header-text'> &nbsp; </div>
    </div>
    ","null","6","true","8","stims/img/CFD-BM-239-136-N.jpg","Tristan","10","stims/img/CFD-AF-247-278-N.jpg","Ivy","","",""
"","null","fixation","html-keyboard-response","227","1895217","0.0-3.0-0.109","28","5","<div style = ""font-size:60px;""> + </div>","null","","","","","","","","","","",""
"","null","learning_trial","html-keyboard-response","228","1897724","0.0-3.0-1.109","28","5","
    <div class = 'grid-container'>
        <div class='header-text'> Friends </div>
        <div>
            Jasmine
            <img width='150' style='border:2px black solid;' src='stims/img/CFD-AF-250-200-N.jpg'>
        </div>
        <div> &nbsp; + &nbsp; </div>
        <div>
            Ethan
            <img width='150' style='border:2px black solid;' src='stims/img/CFD-AM-242-176-N.jpg'>
        </div>
        <div class='header-text'> &nbsp; </div>
    </div>
    ","null","6","true","9","stims/img/CFD-AF-250-200-N.jpg","Jasmine","11","stims/img/CFD-AM-242-176-N.jpg","Ethan","","",""
"","null","fixation","html-keyboard-response","229","1898226","0.0-3.0-0.110","28","5","<div style = ""font-size:60px;""> + </div>","null","","","","","","","","","","",""
"","null","learning_trial","html-keyboard-response","230","1900733","0.0-3.0-1.110","28","5","
    <div class = 'grid-container'>
        <div class='header-text'> Friends </div>
        <div>
            Ethan
            <img width='150' style='border:2px black solid;' src='stims/img/CFD-AM-242-176-N.jpg'>
        </div>
        <div> &nbsp; + &nbsp; </div>
        <div>
            Melanie
            <img width='150' style='border:2px black solid;' src='stims/img/CFD-LF-234-139-N.jpg'>
        </div>
        <div class='header-text'> &nbsp; </div>
    </div>
    ","null","6","true","11","stims/img/CFD-AM-242-176-N.jpg","Ethan","13","stims/img/CFD-LF-234-139-N.jpg","Melanie","","",""
"","null","fixation","html-keyboard-response","231","1901239","0.0-3.0-0.111","28","5","<div style = ""font-size:60px;""> + </div>","null","","","","","","","","","","",""
"","null","learning_trial","html-keyboard-response","232","1903746","0.0-3.0-1.111","28","5","
    <div class = 'grid-container'>
        <div class='header-text'> Friends </div>
        <div>
            Melanie
            <img width='150' style='border:2px black solid;' src='stims/img/CFD-LF-234-139-N.jpg'>
        </div>
        <div> &nbsp; + &nbsp; </div>
        <div>
            Luis
            <img width='150' style='border:2px black solid;' src='stims/img/CFD-LM-211-128-N.jpg'>
        </div>
        <div class='header-text'> &nbsp; </div>
    </div>
    ","null","6","false","12","stims/img/CFD-LM-211-128-N.jpg","Luis","13","stims/img/CFD-LF-234-139-N.jpg","Melanie","","",""
"","null","fixation","html-keyboard-response","233","1904253","0.0-3.0-0.112","28","5","<div style = ""font-size:60px;""> + </div>","null","","","","","","","","","","",""
"","null","learning_trial","html-keyboard-response","234","1906760","0.0-3.0-1.112","28","5","
    <div class = 'grid-container'>
        <div class='header-text'> Friends </div>
        <div>
            Sarah
            <img width='150' style='border:2px black solid;' src='stims/img/CFD-WF-230-158-N.jpg'>
        </div>
        <div> &nbsp; + &nbsp; </div>
        <div>
            Jada
            <img width='150' style='border:2px black solid;' src='stims/img/CFD-BF-207-004-N.jpg'>
        </div>
        <div class='header-text'> &nbsp; </div>
    </div>
    ","null","6","true","2","stims/img/CFD-WF-230-158-N.jpg","Sarah","3","stims/img/CFD-BF-207-004-N.jpg","Jada","","",""
