"view_history","rt","trial_purpose","trial_type","trial_index","time_elapsed","internal_node_id","sub_id","bonus","stimulus","response","rep","display_left","from_id","from_face","from_name","to_id","to_face","to_name","friendship","correct","slider_start"
"[{""page_index"":0,""viewing_time"":5261}]","5261","confirm_correct","instructions","0","5262","0.0-0.0","24","3","","","","","","","","","","","","",""
"[{""page_index"":0,""viewing_time"":1262075},{""page_index"":1,""viewing_time"":10082},{""page_index"":2,""viewing_time"":8400}]","1280559","instructions","instructions","1","1285732","0.0-1.0","24","3","","","","","","","","","","","","",""
"[{""page_index"":0,""viewing_time"":11044},{""page_index"":1,""viewing_time"":6985},{""page_index"":2,""viewing_time"":20267},{""page_index"":3,""viewing_time"":8567}]","46863","instructions","instructions","2","1332597","0.0-2.0","24","3","","","","","","","","","","","","",""
"","null","fixation","html-keyboard-response","3","1333106","0.0-3.0-0.0","24","3","<div style = ""font-size:60px;""> + </div>","null","","","","","","","","","","",""
"","null","learning_trial","html-keyboard-response","4","1335617","0.0-3.0-1.0","24","3","
    <div class = 'grid-container'>
        <div class='header-text'> Friends </div>
        <div>
            Jasmine
            <img width='150' style='border:2px black solid;' src='stims/img/CFD-AF-256-160-N.jpg'>
        </div>
        <div> &nbsp; + &nbsp; </div>
        <div>
            Dylan
            <img width='150' style='border:2px black solid;' src='stims/img/CFD-LM-216-082-N.jpg'>
        </div>
        <div class='header-text'> &nbsp; </div>
    </div>
    ","null","0","true","4","stims/img/CFD-AF-256-160-N.jpg","Jasmine","6","stims/img/CFD-LM-216-082-N.jpg","Dylan","","",""
"","null","fixation","html-keyboard-response","5","1336125","0.0-3.0-0.1","24","3","<div style = ""font-size:60px;""> + </div>","null","","","","","","","","","","",""
"","null","learning_trial","html-keyboard-response","6","1338632","0.0-3.0-1.1","24","3","
    <div class = 'grid-container'>
        <div class='header-text'> Friends </div>
        <div>
            Jasmine
            <img width='150' style='border:2px black solid;' src='stims/img/CFD-AF-256-160-N.jpg'>
        </div>
        <div> &nbsp; + &nbsp; </div>
        <div>
            Ella
            <img width='150' style='border:2px black solid;' src='stims/img/CFD-WF-213-031-N.jpg'>
        </div>
        <div class='header-text'> &nbsp; </div>
    </div>
    ","null","0","false","3","stims/img/CFD-WF-213-031-N.jpg","Ella","4","stims/img/CFD-AF-256-160-N.jpg","Jasmine","","",""
"","null","fixation","html-keyboard-response","7","1339139","0.0-3.0-0.2","24","3","<div style = ""font-size:60px;""> + </div>","null","","","","","","","","","","",""
"","null","learning_trial","html-keyboard-response","8","1341647","0.0-3.0-1.2","24","3","
    <div class = 'grid-container'>
        <div class='header-text'> Friends </div>
        <div>
            Sarah
            <img width='150' style='border:2px black solid;' src='stims/img/CFD-WF-234-086-N.jpg'>
        </div>
        <div> &nbsp; + &nbsp; </div>
        <div>
            Lucas
            <img width='150' style='border:2px black solid;' src='stims/img/CFD-WM-214-026-N.jpg'>
        </div>
        <div class='header-text'> &nbsp; </div>
    </div>
    ","null","0","true","1","stims/img/CFD-WF-234-086-N.jpg","Sarah","2","stims/img/CFD-WM-214-026-N.jpg","Lucas","","",""
"","null","fixation","html-keyboard-response","9","1342154","0.0-3.0-0.3","24","3","<div style = ""font-size:60px;""> + </div>","null","","","","","","","","","","",""
"","null","learning_trial","html-keyboard-response","10","1344662","0.0-3.0-1.3","24","3","
    <div class = 'grid-container'>
        <div class='header-text'> Friends </div>
        <div>
            Joshua
            <img width='150' style='border:2px black solid;' src='stims/img/CFD-LM-231-214-N.jpg'>
        </div>
        <div> &nbsp; + &nbsp; </div>
        <div>
            Evan
            <img width='150' style='border:2px black solid;' src='stims/img/CFD-AM-211-052-N.jpg'>
        </div>
        <div class='header-text'> &nbsp; </div>
    </div>
    ","null","0","false","5","stims/img/CFD-AM-211-052-N.jpg","Evan","7","stims/img/CFD-LM-231-214-N.jpg","Joshua","","",""
"","null","fixation","html-keyboard-response","11","1345168","0.0-3.0-0.4","24","3","<div style = ""font-size:60px;""> + </div>","null","","","","","","","","","","",""
"","null","learning_trial","html-keyboard-response","12","1347676","0.0-3.0-1.4","24","3","
    <div class = 'grid-container'>
        <div class='header-text'> Friends </div>
        <div>
            Christian
            <img width='150' style='border:2px black solid;' src='stims/img/CFD-BM-235-226-N.jpg'>
        </div>
        <div> &nbsp; + &nbsp; </div>
        <div>
            Sarah
            <img width='150' style='border:2px black solid;' src='stims/img/CFD-WF-234-086-N.jpg'>
        </div>
        <div class='header-text'> &nbsp; </div>
    </div>
    ","null","0","false","1","stims/img/CFD-WF-234-086-N.jpg","Sarah","8","stims/img/CFD-BM-235-226-N.jpg","Christian","","",""
"","null","fixation","html-keyboard-response","13","1348183","0.0-3.0-0.5","24","3","<div style = ""font-size:60px;""> + </div>","null","","","","","","","","","","",""
"","null","learning_trial","html-keyboard-response","14","1350692","0.0-3.0-1.5","24","3","
    <div class = 'grid-container'>
        <div class='header-text'> Friends </div>
        <div>
            Laila
            <img width='150' style='border:2px black solid;' src='stims/img/CFD-BF-210-130-N.jpg'>
        </div>
        <div> &nbsp; + &nbsp; </div>
        <div>
            Angelina
            <img width='150' style='border:2px black solid;' src='stims/img/CFD-LF-214-090-N.jpg'>
        </div>
        <div class='header-text'> &nbsp; </div>
    </div>
    ","null","0","true","10","stims/img/CFD-BF-210-130-N.jpg","Laila","12","stims/img/CFD-LF-214-090-N.jpg","Angelina","","",""
"","null","fixation","html-keyboard-response","15","1351198","0.0-3.0-0.6","24","3","<div style = ""font-size:60px;""> + </div>","null","","","","","","","","","","",""
"","null","learning_trial","html-keyboard-response","16","1353707","0.0-3.0-1.6","24","3","
    <div class = 'grid-container'>
        <div class='header-text'> Friends </div>
        <div>
            Christian
            <img width='150' style='border:2px black solid;' src='stims/img/CFD-BM-235-226-N.jpg'>
        </div>
        <div> &nbsp; + &nbsp; </div>
        <div>
            Alice
            <img width='150' style='border:2px black solid;' src='stims/img/CFD-AF-224-026-N.jpg'>
        </div>
        <div class='header-text'> &nbsp; </div>
    </div>
    ","null","0","true","8","stims/img/CFD-BM-235-226-N.jpg","Christian","9","stims/img/CFD-AF-224-026-N.jpg","Alice","","",""
"","null","fixation","html-keyboard-response","17","1354212","0.0-3.0-0.7","24","3","<div style = ""font-size:60px;""> + </div>","null","","","","","","","","","","",""
"","null","learning_trial","html-keyboard-response","18","1356719","0.0-3.0-1.7","24","3","
    <div class = 'grid-container'>
        <div class='header-text'> Friends </div>
        <div>
            Ella
            <img width='150' style='border:2px black solid;' src='stims/img/CFD-WF-213-031-N.jpg'>
        </div>
        <div> &nbsp; + &nbsp; </div>
        <div>
            Evan
            <img width='150' style='border:2px black solid;' src='stims/img/CFD-AM-211-052-N.jpg'>
        </div>
        <div class='header-text'> &nbsp; </div>
    </div>
    ","null","0","true","3","stims/img/CFD-WF-213-031-N.jpg","Ella","5","stims/img/CFD-AM-211-052-N.jpg","Evan","","",""
"","null","fixation","html-keyboard-response","19","1357223","0.0-3.0-0.8","24","3","<div style = ""font-size:60px;""> + </div>","null","","","","","","","","","","",""
"","null","learning_trial","html-keyboard-response","20","1359731","0.0-3.0-1.8","24","3","
    <div class = 'grid-container'>
        <div class='header-text'> Friends </div>
        <div>
            Angelina
            <img width='150' style='border:2px black solid;' src='stims/img/CFD-LF-214-090-N.jpg'>
        </div>
        <div> &nbsp; + &nbsp; </div>
        <div>
            Daniel
            <img width='150' style='border:2px black solid;' src='stims/img/CFD-AM-238-269-N.jpg'>
        </div>
        <div class='header-text'> &nbsp; </div>
    </div>
    ","null","0","false","11","stims/img/CFD-AM-238-269-N.jpg","Daniel","12","stims/img/CFD-LF-214-090-N.jpg","Angelina","","",""
"","null","fixation","html-keyboard-response","21","1360232","0.0-3.0-0.9","24","3","<div style = ""font-size:60px;""> + </div>","null","","","","","","","","","","",""
"","null","learning_trial","html-keyboard-response","22","1362739","0.0-3.0-1.9","24","3","
    <div class = 'grid-container'>
        <div class='header-text'> Friends </div>
        <div>
            Jasmine
            <img width='150' style='border:2px black solid;' src='stims/img/CFD-AF-256-160-N.jpg'>
        </div>
        <div> &nbsp; + &nbsp; </div>
        <div>
            Evan
            <img width='150' style='border:2px black solid;' src='stims/img/CFD-AM-211-052-N.jpg'>
        </div>
        <div class='header-text'> &nbsp; </div>
    </div>
    ","null","0","true","4","stims/img/CFD-AF-256-160-N.jpg","Jasmine","5","stims/img/CFD-AM-211-052-N.jpg","Evan","","",""
"","null","fixation","html-keyboard-response","23","1363246","0.0-3.0-0.10","24","3","<div style = ""font-size:60px;""> + </div>","null","","","","","","","","","","",""
"","null","learning_trial","html-keyboard-response","24","1365751","0.0-3.0-1.10","24","3","
    <div class = 'grid-container'>
        <div class='header-text'> Friends </div>
        <div>
            Daniel
            <img width='150' style='border:2px black solid;' src='stims/img/CFD-AM-238-269-N.jpg'>
        </div>
        <div> &nbsp; + &nbsp; </div>
        <div>
            Christopher
            <img width='150' style='border:2px black solid;' src='stims/img/CFD-BM-210-148-N.jpg'>
        </div>
        <div class='header-text'> &nbsp; </div>
    </div>
    ","null","0","true","11","stims/img/CFD-AM-238-269-N.jpg","Daniel","13","stims/img/CFD-BM-210-148-N.jpg","Christopher","","",""
"","null","fixation","html-keyboard-response","25","1366258","0.0-3.0-0.11","24","3","<div style = ""font-size:60px;""> + </div>","null","","","","","","","","","","",""
"","null","learning_trial","html-keyboard-response","26","1368765","0.0-3.0-1.11","24","3","
    <div class = 'grid-container'>
        <div class='header-text'> Friends </div>
        <div>
            Christopher
            <img width='150' style='border:2px black solid;' src='stims/img/CFD-BM-210-148-N.jpg'>
        </div>
        <div> &nbsp; + &nbsp; </div>
        <div>
            Angelina
            <img width='150' style='border:2px black solid;' src='stims/img/CFD-LF-214-090-N.jpg'>
        </div>
        <div class='header-text'> &nbsp; </div>
    </div>
    ","null","0","false","12","stims/img/CFD-LF-214-090-N.jpg","Angelina","13","stims/img/CFD-BM-210-148-N.jpg","Christopher","","",""
"","null","fixation","html-keyboard-response","27","1369271","0.0-3.0-0.12","24","3","<div style = ""font-size:60px;""> + </div>","null","","","","","","","","","","",""
"","null","learning_trial","html-keyboard-response","28","1371778","0.0-3.0-1.12","24","3","
    <div class = 'grid-container'>
        <div class='header-text'> Friends </div>
        <div>
            Dylan
            <img width='150' style='border:2px black solid;' src='stims/img/CFD-LM-216-082-N.jpg'>
        </div>
        <div> &nbsp; + &nbsp; </div>
        <div>
            Joshua
            <img width='150' style='border:2px black solid;' src='stims/img/CFD-LM-231-214-N.jpg'>
        </div>
        <div class='header-text'> &nbsp; </div>
    </div>
    ","null","0","true","6","stims/img/CFD-LM-216-082-N.jpg","Dylan","7","stims/img/CFD-LM-231-214-N.jpg","Joshua","","",""
"","null","fixation","html-keyboard-response","29","1372284","0.0-3.0-0.13","24","3","<div style = ""font-size:60px;""> + </div>","null","","","","","","","","","","",""
"","null","learning_trial","html-keyboard-response","30","1374790","0.0-3.0-1.13","24","3","
    <div class = 'grid-container'>
        <div class='header-text'> Friends </div>
        <div>
            Jasmine
            <img width='150' style='border:2px black solid;' src='stims/img/CFD-AF-256-160-N.jpg'>
        </div>
        <div> &nbsp; + &nbsp; </div>
        <div>
            Lucas
            <img width='150' style='border:2px black solid;' src='stims/img/CFD-WM-214-026-N.jpg'>
        </div>
        <div class='header-text'> &nbsp; </div>
    </div>
    ","null","0","false","2","stims/img/CFD-WM-214-026-N.jpg","Lucas","4","stims/img/CFD-AF-256-160-N.jpg","Jasmine","","",""
"","null","fixation","html-keyboard-response","31","1375296","0.0-3.0-0.14","24","3","<div style = ""font-size:60px;""> + </div>","null","","","","","","","","","","",""
"","null","learning_trial","html-keyboard-response","32","1377802","0.0-3.0-1.14","24","3","
    <div class = 'grid-container'>
        <div class='header-text'> Friends </div>
        <div>
            Alice
            <img width='150' style='border:2px black solid;' src='stims/img/CFD-AF-224-026-N.jpg'>
        </div>
        <div> &nbsp; + &nbsp; </div>
        <div>
            Daniel
            <img width='150' style='border:2px black solid;' src='stims/img/CFD-AM-238-269-N.jpg'>
        </div>
        <div class='header-text'> &nbsp; </div>
    </div>
    ","null","0","true","9","stims/img/CFD-AF-224-026-N.jpg","Alice","11","stims/img/CFD-AM-238-269-N.jpg","Daniel","","",""
"","null","fixation","html-keyboard-response","33","1378308","0.0-3.0-0.15","24","3","<div style = ""font-size:60px;""> + </div>","null","","","","","","","","","","",""
"","null","learning_trial","html-keyboard-response","34","1380814","0.0-3.0-1.15","24","3","
    <div class = 'grid-container'>
        <div class='header-text'> Friends </div>
        <div>
            Lucas
            <img width='150' style='border:2px black solid;' src='stims/img/CFD-WM-214-026-N.jpg'>
        </div>
        <div> &nbsp; + &nbsp; </div>
        <div>
            Ella
            <img width='150' style='border:2px black solid;' src='stims/img/CFD-WF-213-031-N.jpg'>
        </div>
        <div class='header-text'> &nbsp; </div>
    </div>
    ","null","0","true","2","stims/img/CFD-WM-214-026-N.jpg","Lucas","3","stims/img/CFD-WF-213-031-N.jpg","Ella","","",""
"","null","fixation","html-keyboard-response","35","1381320","0.0-3.0-0.16","24","3","<div style = ""font-size:60px;""> + </div>","null","","","","","","","","","","",""
"","null","learning_trial","html-keyboard-response","36","1383828","0.0-3.0-1.16","24","3","
    <div class = 'grid-container'>
        <div class='header-text'> Friends </div>
        <div>
            Laila
            <img width='150' style='border:2px black solid;' src='stims/img/CFD-BF-210-130-N.jpg'>
        </div>
        <div> &nbsp; + &nbsp; </div>
        <div>
            Christian
            <img width='150' style='border:2px black solid;' src='stims/img/CFD-BM-235-226-N.jpg'>
        </div>
        <div class='header-text'> &nbsp; </div>
    </div>
    ","null","0","false","8","stims/img/CFD-BM-235-226-N.jpg","Christian","10","stims/img/CFD-BF-210-130-N.jpg","Laila","","",""
"","14116","break","html-keyboard-response","37","1397945","0.0-3.0-2.16-0.16","24","3","If you'd like to take a break before continuing, 
    please do so now. <p>To continue, please press the spacebar.</p>"," ","","","","","","","","","","",""
"","null","fixation","html-keyboard-response","38","1398450","0.0-3.0-0.17","24","3","<div style = ""font-size:60px;""> + </div>","null","","","","","","","","","","",""
"","null","learning_trial","html-keyboard-response","39","1400958","0.0-3.0-1.17","24","3","
    <div class = 'grid-container'>
        <div class='header-text'> Friends </div>
        <div>
            Angelina
            <img width='150' style='border:2px black solid;' src='stims/img/CFD-LF-214-090-N.jpg'>
        </div>
        <div> &nbsp; + &nbsp; </div>
        <div>
            Daniel
            <img width='150' style='border:2px black solid;' src='stims/img/CFD-AM-238-269-N.jpg'>
        </div>
        <div class='header-text'> &nbsp; </div>
    </div>
    ","null","1","false","11","stims/img/CFD-AM-238-269-N.jpg","Daniel","12","stims/img/CFD-LF-214-090-N.jpg","Angelina","","",""
"","null","fixation","html-keyboard-response","40","1401463","0.0-3.0-0.18","24","3","<div style = ""font-size:60px;""> + </div>","null","","","","","","","","","","",""
"","null","learning_trial","html-keyboard-response","41","1403971","0.0-3.0-1.18","24","3","
    <div class = 'grid-container'>
        <div class='header-text'> Friends </div>
        <div>
            Joshua
            <img width='150' style='border:2px black solid;' src='stims/img/CFD-LM-231-214-N.jpg'>
        </div>
        <div> &nbsp; + &nbsp; </div>
        <div>
            Evan
            <img width='150' style='border:2px black solid;' src='stims/img/CFD-AM-211-052-N.jpg'>
        </div>
        <div class='header-text'> &nbsp; </div>
    </div>
    ","null","1","false","5","stims/img/CFD-AM-211-052-N.jpg","Evan","7","stims/img/CFD-LM-231-214-N.jpg","Joshua","","",""
"","null","fixation","html-keyboard-response","42","1404478","0.0-3.0-0.19","24","3","<div style = ""font-size:60px;""> + </div>","null","","","","","","","","","","",""
"","null","learning_trial","html-keyboard-response","43","1406984","0.0-3.0-1.19","24","3","
    <div class = 'grid-container'>
        <div class='header-text'> Friends </div>
        <div>
            Laila
            <img width='150' style='border:2px black solid;' src='stims/img/CFD-BF-210-130-N.jpg'>
        </div>
        <div> &nbsp; + &nbsp; </div>
        <div>
            Angelina
            <img width='150' style='border:2px black solid;' src='stims/img/CFD-LF-214-090-N.jpg'>
        </div>
        <div class='header-text'> &nbsp; </div>
    </div>
    ","null","1","true","10","stims/img/CFD-BF-210-130-N.jpg","Laila","12","stims/img/CFD-LF-214-090-N.jpg","Angelina","","",""
"","null","fixation","html-keyboard-response","44","1407490","0.0-3.0-0.20","24","3","<div style = ""font-size:60px;""> + </div>","null","","","","","","","","","","",""
"","null","learning_trial","html-keyboard-response","45","1409993","0.0-3.0-1.20","24","3","
    <div class = 'grid-container'>
        <div class='header-text'> Friends </div>
        <div>
            Christian
            <img width='150' style='border:2px black solid;' src='stims/img/CFD-BM-235-226-N.jpg'>
        </div>
        <div> &nbsp; + &nbsp; </div>
        <div>
            Sarah
            <img width='150' style='border:2px black solid;' src='stims/img/CFD-WF-234-086-N.jpg'>
        </div>
        <div class='header-text'> &nbsp; </div>
    </div>
    ","null","1","false","1","stims/img/CFD-WF-234-086-N.jpg","Sarah","8","stims/img/CFD-BM-235-226-N.jpg","Christian","","",""
"","null","fixation","html-keyboard-response","46","1410500","0.0-3.0-0.21","24","3","<div style = ""font-size:60px;""> + </div>","null","","","","","","","","","","",""
"","null","learning_trial","html-keyboard-response","47","1413006","0.0-3.0-1.21","24","3","
    <div class = 'grid-container'>
        <div class='header-text'> Friends </div>
        <div>
            Ella
            <img width='150' style='border:2px black solid;' src='stims/img/CFD-WF-213-031-N.jpg'>
        </div>
        <div> &nbsp; + &nbsp; </div>
        <div>
            Lucas
            <img width='150' style='border:2px black solid;' src='stims/img/CFD-WM-214-026-N.jpg'>
        </div>
        <div class='header-text'> &nbsp; </div>
    </div>
    ","null","1","false","2","stims/img/CFD-WM-214-026-N.jpg","Lucas","3","stims/img/CFD-WF-213-031-N.jpg","Ella","","",""
"","null","fixation","html-keyboard-response","48","1413512","0.0-3.0-0.22","24","3","<div style = ""font-size:60px;""> + </div>","null","","","","","","","","","","",""
"","null","learning_trial","html-keyboard-response","49","1416019","0.0-3.0-1.22","24","3","
    <div class = 'grid-container'>
        <div class='header-text'> Friends </div>
        <div>
            Jasmine
            <img width='150' style='border:2px black solid;' src='stims/img/CFD-AF-256-160-N.jpg'>
        </div>
        <div> &nbsp; + &nbsp; </div>
        <div>
            Lucas
            <img width='150' style='border:2px black solid;' src='stims/img/CFD-WM-214-026-N.jpg'>
        </div>
        <div class='header-text'> &nbsp; </div>
    </div>
    ","null","1","false","2","stims/img/CFD-WM-214-026-N.jpg","Lucas","4","stims/img/CFD-AF-256-160-N.jpg","Jasmine","","",""
"","null","fixation","html-keyboard-response","50","1416525","0.0-3.0-0.23","24","3","<div style = ""font-size:60px;""> + </div>","null","","","","","","","","","","",""
"","null","learning_trial","html-keyboard-response","51","1419029","0.0-3.0-1.23","24","3","
    <div class = 'grid-container'>
        <div class='header-text'> Friends </div>
        <div>
            Ella
            <img width='150' style='border:2px black solid;' src='stims/img/CFD-WF-213-031-N.jpg'>
        </div>
        <div> &nbsp; + &nbsp; </div>
        <div>
            Jasmine
            <img width='150' style='border:2px black solid;' src='stims/img/CFD-AF-256-160-N.jpg'>
        </div>
        <div class='header-text'> &nbsp; </div>
    </div>
    ","null","1","true","3","stims/img/CFD-WF-213-031-N.jpg","Ella","4","stims/img/CFD-AF-256-160-N.jpg","Jasmine","","",""
"","null","fixation","html-keyboard-response","52","1419534","0.0-3.0-0.24","24","3","<div style = ""font-size:60px;""> + </div>","null","","","","","","","","","","",""
"","null","learning_trial","html-keyboard-response","53","1422041","0.0-3.0-1.24","24","3","
    <div class = 'grid-container'>
        <div class='header-text'> Friends </div>
        <div>
            Christopher
            <img width='150' style='border:2px black solid;' src='stims/img/CFD-BM-210-148-N.jpg'>
        </div>
        <div> &nbsp; + &nbsp; </div>
        <div>
            Angelina
            <img width='150' style='border:2px black solid;' src='stims/img/CFD-LF-214-090-N.jpg'>
        </div>
        <div class='header-text'> &nbsp; </div>
    </div>
    ","null","1","false","12","stims/img/CFD-LF-214-090-N.jpg","Angelina","13","stims/img/CFD-BM-210-148-N.jpg","Christopher","","",""
"","null","fixation","html-keyboard-response","54","1422547","0.0-3.0-0.25","24","3","<div style = ""font-size:60px;""> + </div>","null","","","","","","","","","","",""
"","null","learning_trial","html-keyboard-response","55","1425053","0.0-3.0-1.25","24","3","
    <div class = 'grid-container'>
        <div class='header-text'> Friends </div>
        <div>
            Christopher
            <img width='150' style='border:2px black solid;' src='stims/img/CFD-BM-210-148-N.jpg'>
        </div>
        <div> &nbsp; + &nbsp; </div>
        <div>
            Daniel
            <img width='150' style='border:2px black solid;' src='stims/img/CFD-AM-238-269-N.jpg'>
        </div>
        <div class='header-text'> &nbsp; </div>
    </div>
    ","null","1","false","11","stims/img/CFD-AM-238-269-N.jpg","Daniel","13","stims/img/CFD-BM-210-148-N.jpg","Christopher","","",""
"","null","fixation","html-keyboard-response","56","1425560","0.0-3.0-0.26","24","3","<div style = ""font-size:60px;""> + </div>","null","","","","","","","","","","",""
"","null","learning_trial","html-keyboard-response","57","1428067","0.0-3.0-1.26","24","3","
    <div class = 'grid-container'>
        <div class='header-text'> Friends </div>
        <div>
            Alice
            <img width='150' style='border:2px black solid;' src='stims/img/CFD-AF-224-026-N.jpg'>
        </div>
        <div> &nbsp; + &nbsp; </div>
        <div>
            Daniel
            <img width='150' style='border:2px black solid;' src='stims/img/CFD-AM-238-269-N.jpg'>
        </div>
        <div class='header-text'> &nbsp; </div>
    </div>
    ","null","1","true","9","stims/img/CFD-AF-224-026-N.jpg","Alice","11","stims/img/CFD-AM-238-269-N.jpg","Daniel","","",""
"","null","fixation","html-keyboard-response","58","1428574","0.0-3.0-0.27","24","3","<div style = ""font-size:60px;""> + </div>","null","","","","","","","","","","",""
"","null","learning_trial","html-keyboard-response","59","1431080","0.0-3.0-1.27","24","3","
    <div class = 'grid-container'>
        <div class='header-text'> Friends </div>
        <div>
            Laila
            <img width='150' style='border:2px black solid;' src='stims/img/CFD-BF-210-130-N.jpg'>
        </div>
        <div> &nbsp; + &nbsp; </div>
        <div>
            Christian
            <img width='150' style='border:2px black solid;' src='stims/img/CFD-BM-235-226-N.jpg'>
        </div>
        <div class='header-text'> &nbsp; </div>
    </div>
    ","null","1","false","8","stims/img/CFD-BM-235-226-N.jpg","Christian","10","stims/img/CFD-BF-210-130-N.jpg","Laila","","",""
"","null","fixation","html-keyboard-response","60","1431586","0.0-3.0-0.28","24","3","<div style = ""font-size:60px;""> + </div>","null","","","","","","","","","","",""
"","null","learning_trial","html-keyboard-response","61","1434090","0.0-3.0-1.28","24","3","
    <div class = 'grid-container'>
        <div class='header-text'> Friends </div>
        <div>
            Evan
            <img width='150' style='border:2px black solid;' src='stims/img/CFD-AM-211-052-N.jpg'>
        </div>
        <div> &nbsp; + &nbsp; </div>
        <div>
            Ella
            <img width='150' style='border:2px black solid;' src='stims/img/CFD-WF-213-031-N.jpg'>
        </div>
        <div class='header-text'> &nbsp; </div>
    </div>
    ","null","1","false","3","stims/img/CFD-WF-213-031-N.jpg","Ella","5","stims/img/CFD-AM-211-052-N.jpg","Evan","","",""
"","null","fixation","html-keyboard-response","62","1434596","0.0-3.0-0.29","24","3","<div style = ""font-size:60px;""> + </div>","null","","","","","","","","","","",""
"","null","learning_trial","html-keyboard-response","63","1437102","0.0-3.0-1.29","24","3","
    <div class = 'grid-container'>
        <div class='header-text'> Friends </div>
        <div>
            Lucas
            <img width='150' style='border:2px black solid;' src='stims/img/CFD-WM-214-026-N.jpg'>
        </div>
        <div> &nbsp; + &nbsp; </div>
        <div>
            Sarah
            <img width='150' style='border:2px black solid;' src='stims/img/CFD-WF-234-086-N.jpg'>
        </div>
        <div class='header-text'> &nbsp; </div>
    </div>
    ","null","1","false","1","stims/img/CFD-WF-234-086-N.jpg","Sarah","2","stims/img/CFD-WM-214-026-N.jpg","Lucas","","",""
"","null","fixation","html-keyboard-response","64","1437608","0.0-3.0-0.30","24","3","<div style = ""font-size:60px;""> + </div>","null","","","","","","","","","","",""
"","null","learning_trial","html-keyboard-response","65","1440115","0.0-3.0-1.30","24","3","
    <div class = 'grid-container'>
        <div class='header-text'> Friends </div>
        <div>
            Dylan
            <img width='150' style='border:2px black solid;' src='stims/img/CFD-LM-216-082-N.jpg'>
        </div>
        <div> &nbsp; + &nbsp; </div>
        <div>
            Joshua
            <img width='150' style='border:2px black solid;' src='stims/img/CFD-LM-231-214-N.jpg'>
        </div>
        <div class='header-text'> &nbsp; </div>
    </div>
    ","null","1","true","6","stims/img/CFD-LM-216-082-N.jpg","Dylan","7","stims/img/CFD-LM-231-214-N.jpg","Joshua","","",""
"","null","fixation","html-keyboard-response","66","1440622","0.0-3.0-0.31","24","3","<div style = ""font-size:60px;""> + </div>","null","","","","","","","","","","",""
"","null","learning_trial","html-keyboard-response","67","1443128","0.0-3.0-1.31","24","3","
    <div class = 'grid-container'>
        <div class='header-text'> Friends </div>
        <div>
            Evan
            <img width='150' style='border:2px black solid;' src='stims/img/CFD-AM-211-052-N.jpg'>
        </div>
        <div> &nbsp; + &nbsp; </div>
        <div>
            Jasmine
            <img width='150' style='border:2px black solid;' src='stims/img/CFD-AF-256-160-N.jpg'>
        </div>
        <div class='header-text'> &nbsp; </div>
    </div>
    ","null","1","false","4","stims/img/CFD-AF-256-160-N.jpg","Jasmine","5","stims/img/CFD-AM-211-052-N.jpg","Evan","","",""
"","null","fixation","html-keyboard-response","68","1443634","0.0-3.0-0.32","24","3","<div style = ""font-size:60px;""> + </div>","null","","","","","","","","","","",""
"","null","learning_trial","html-keyboard-response","69","1446141","0.0-3.0-1.32","24","3","
    <div class = 'grid-container'>
        <div class='header-text'> Friends </div>
        <div>
            Jasmine
            <img width='150' style='border:2px black solid;' src='stims/img/CFD-AF-256-160-N.jpg'>
        </div>
        <div> &nbsp; + &nbsp; </div>
        <div>
            Dylan
            <img width='150' style='border:2px black solid;' src='stims/img/CFD-LM-216-082-N.jpg'>
        </div>
        <div class='header-text'> &nbsp; </div>
    </div>
    ","null","1","true","4","stims/img/CFD-AF-256-160-N.jpg","Jasmine","6","stims/img/CFD-LM-216-082-N.jpg","Dylan","","",""
"","null","fixation","html-keyboard-response","70","1446648","0.0-3.0-0.33","24","3","<div style = ""font-size:60px;""> + </div>","null","","","","","","","","","","",""
"","null","learning_trial","html-keyboard-response","71","1449154","0.0-3.0-1.33","24","3","
    <div class = 'grid-container'>
        <div class='header-text'> Friends </div>
        <div>
            Alice
            <img width='150' style='border:2px black solid;' src='stims/img/CFD-AF-224-026-N.jpg'>
        </div>
        <div> &nbsp; + &nbsp; </div>
        <div>
            Christian
            <img width='150' style='border:2px black solid;' src='stims/img/CFD-BM-235-226-N.jpg'>
        </div>
        <div class='header-text'> &nbsp; </div>
    </div>
    ","null","1","false","8","stims/img/CFD-BM-235-226-N.jpg","Christian","9","stims/img/CFD-AF-224-026-N.jpg","Alice","","",""
"","10518","break","html-keyboard-response","72","1459672","0.0-3.0-2.33-0.33","24","3","If you'd like to take a break before continuing, 
    please do so now. <p>To continue, please press the spacebar.</p>"," ","","","","","","","","","","",""
"","null","fixation","html-keyboard-response","73","1460178","0.0-3.0-0.34","24","3","<div style = ""font-size:60px;""> + </div>","null","","","","","","","","","","",""
"","null","learning_trial","html-keyboard-response","74","1462685","0.0-3.0-1.34","24","3","
    <div class = 'grid-container'>
        <div class='header-text'> Friends </div>
        <div>
            Jasmine
            <img width='150' style='border:2px black solid;' src='stims/img/CFD-AF-256-160-N.jpg'>
        </div>
        <div> &nbsp; + &nbsp; </div>
        <div>
            Ella
            <img width='150' style='border:2px black solid;' src='stims/img/CFD-WF-213-031-N.jpg'>
        </div>
        <div class='header-text'> &nbsp; </div>
    </div>
    ","null","2","false","3","stims/img/CFD-WF-213-031-N.jpg","Ella","4","stims/img/CFD-AF-256-160-N.jpg","Jasmine","","",""
"","null","fixation","html-keyboard-response","75","1463191","0.0-3.0-0.35","24","3","<div style = ""font-size:60px;""> + </div>","null","","","","","","","","","","",""
"","null","learning_trial","html-keyboard-response","76","1465698","0.0-3.0-1.35","24","3","
    <div class = 'grid-container'>
        <div class='header-text'> Friends </div>
        <div>
            Christian
            <img width='150' style='border:2px black solid;' src='stims/img/CFD-BM-235-226-N.jpg'>
        </div>
        <div> &nbsp; + &nbsp; </div>
        <div>
            Alice
            <img width='150' style='border:2px black solid;' src='stims/img/CFD-AF-224-026-N.jpg'>
        </div>
        <div class='header-text'> &nbsp; </div>
    </div>
    ","null","2","true","8","stims/img/CFD-BM-235-226-N.jpg","Christian","9","stims/img/CFD-AF-224-026-N.jpg","Alice","","",""
"","null","fixation","html-keyboard-response","77","1466204","0.0-3.0-0.36","24","3","<div style = ""font-size:60px;""> + </div>","null","","","","","","","","","","",""
"","null","learning_trial","html-keyboard-response","78","1468711","0.0-3.0-1.36","24","3","
    <div class = 'grid-container'>
        <div class='header-text'> Friends </div>
        <div>
            Lucas
            <img width='150' style='border:2px black solid;' src='stims/img/CFD-WM-214-026-N.jpg'>
        </div>
        <div> &nbsp; + &nbsp; </div>
        <div>
            Sarah
            <img width='150' style='border:2px black solid;' src='stims/img/CFD-WF-234-086-N.jpg'>
        </div>
        <div class='header-text'> &nbsp; </div>
    </div>
    ","null","2","false","1","stims/img/CFD-WF-234-086-N.jpg","Sarah","2","stims/img/CFD-WM-214-026-N.jpg","Lucas","","",""
"","null","fixation","html-keyboard-response","79","1469214","0.0-3.0-0.37","24","3","<div style = ""font-size:60px;""> + </div>","null","","","","","","","","","","",""
"","null","learning_trial","html-keyboard-response","80","1471721","0.0-3.0-1.37","24","3","
    <div class = 'grid-container'>
        <div class='header-text'> Friends </div>
        <div>
            Daniel
            <img width='150' style='border:2px black solid;' src='stims/img/CFD-AM-238-269-N.jpg'>
        </div>
        <div> &nbsp; + &nbsp; </div>
        <div>
            Alice
            <img width='150' style='border:2px black solid;' src='stims/img/CFD-AF-224-026-N.jpg'>
        </div>
        <div class='header-text'> &nbsp; </div>
    </div>
    ","null","2","false","9","stims/img/CFD-AF-224-026-N.jpg","Alice","11","stims/img/CFD-AM-238-269-N.jpg","Daniel","","",""
"","null","fixation","html-keyboard-response","81","1472227","0.0-3.0-0.38","24","3","<div style = ""font-size:60px;""> + </div>","null","","","","","","","","","","",""
"","null","learning_trial","html-keyboard-response","82","1474733","0.0-3.0-1.38","24","3","
    <div class = 'grid-container'>
        <div class='header-text'> Friends </div>
        <div>
            Lucas
            <img width='150' style='border:2px black solid;' src='stims/img/CFD-WM-214-026-N.jpg'>
        </div>
        <div> &nbsp; + &nbsp; </div>
        <div>
            Jasmine
            <img width='150' style='border:2px black solid;' src='stims/img/CFD-AF-256-160-N.jpg'>
        </div>
        <div class='header-text'> &nbsp; </div>
    </div>
    ","null","2","true","2","stims/img/CFD-WM-214-026-N.jpg","Lucas","4","stims/img/CFD-AF-256-160-N.jpg","Jasmine","","",""
"","null","fixation","html-keyboard-response","83","1475240","0.0-3.0-0.39","24","3","<div style = ""font-size:60px;""> + </div>","null","","","","","","","","","","",""
"","null","learning_trial","html-keyboard-response","84","1477748","0.0-3.0-1.39","24","3","
    <div class = 'grid-container'>
        <div class='header-text'> Friends </div>
        <div>
            Daniel
            <img width='150' style='border:2px black solid;' src='stims/img/CFD-AM-238-269-N.jpg'>
        </div>
        <div> &nbsp; + &nbsp; </div>
        <div>
            Angelina
            <img width='150' style='border:2px black solid;' src='stims/img/CFD-LF-214-090-N.jpg'>
        </div>
        <div class='header-text'> &nbsp; </div>
    </div>
    ","null","2","true","11","stims/img/CFD-AM-238-269-N.jpg","Daniel","12","stims/img/CFD-LF-214-090-N.jpg","Angelina","","",""
"","null","fixation","html-keyboard-response","85","1478248","0.0-3.0-0.40","24","3","<div style = ""font-size:60px;""> + </div>","null","","","","","","","","","","",""
"","null","learning_trial","html-keyboard-response","86","1480755","0.0-3.0-1.40","24","3","
    <div class = 'grid-container'>
        <div class='header-text'> Friends </div>
        <div>
            Christopher
            <img width='150' style='border:2px black solid;' src='stims/img/CFD-BM-210-148-N.jpg'>
        </div>
        <div> &nbsp; + &nbsp; </div>
        <div>
            Angelina
            <img width='150' style='border:2px black solid;' src='stims/img/CFD-LF-214-090-N.jpg'>
        </div>
        <div class='header-text'> &nbsp; </div>
    </div>
    ","null","2","false","12","stims/img/CFD-LF-214-090-N.jpg","Angelina","13","stims/img/CFD-BM-210-148-N.jpg","Christopher","","",""
"","null","fixation","html-keyboard-response","87","1481257","0.0-3.0-0.41","24","3","<div style = ""font-size:60px;""> + </div>","null","","","","","","","","","","",""
"","null","learning_trial","html-keyboard-response","88","1483762","0.0-3.0-1.41","24","3","
    <div class = 'grid-container'>
        <div class='header-text'> Friends </div>
        <div>
            Christian
            <img width='150' style='border:2px black solid;' src='stims/img/CFD-BM-235-226-N.jpg'>
        </div>
        <div> &nbsp; + &nbsp; </div>
        <div>
            Sarah
            <img width='150' style='border:2px black solid;' src='stims/img/CFD-WF-234-086-N.jpg'>
        </div>
        <div class='header-text'> &nbsp; </div>
    </div>
    ","null","2","false","1","stims/img/CFD-WF-234-086-N.jpg","Sarah","8","stims/img/CFD-BM-235-226-N.jpg","Christian","","",""
"","null","fixation","html-keyboard-response","89","1484265","0.0-3.0-0.42","24","3","<div style = ""font-size:60px;""> + </div>","null","","","","","","","","","","",""
"","null","learning_trial","html-keyboard-response","90","1486771","0.0-3.0-1.42","24","3","
    <div class = 'grid-container'>
        <div class='header-text'> Friends </div>
        <div>
            Evan
            <img width='150' style='border:2px black solid;' src='stims/img/CFD-AM-211-052-N.jpg'>
        </div>
        <div> &nbsp; + &nbsp; </div>
        <div>
            Joshua
            <img width='150' style='border:2px black solid;' src='stims/img/CFD-LM-231-214-N.jpg'>
        </div>
        <div class='header-text'> &nbsp; </div>
    </div>
    ","null","2","true","5","stims/img/CFD-AM-211-052-N.jpg","Evan","7","stims/img/CFD-LM-231-214-N.jpg","Joshua","","",""
"","null","fixation","html-keyboard-response","91","1487278","0.0-3.0-0.43","24","3","<div style = ""font-size:60px;""> + </div>","null","","","","","","","","","","",""
"","null","learning_trial","html-keyboard-response","92","1489779","0.0-3.0-1.43","24","3","
    <div class = 'grid-container'>
        <div class='header-text'> Friends </div>
        <div>
            Ella
            <img width='150' style='border:2px black solid;' src='stims/img/CFD-WF-213-031-N.jpg'>
        </div>
        <div> &nbsp; + &nbsp; </div>
        <div>
            Lucas
            <img width='150' style='border:2px black solid;' src='stims/img/CFD-WM-214-026-N.jpg'>
        </div>
        <div class='header-text'> &nbsp; </div>
    </div>
    ","null","2","false","2","stims/img/CFD-WM-214-026-N.jpg","Lucas","3","stims/img/CFD-WF-213-031-N.jpg","Ella","","",""
"","null","fixation","html-keyboard-response","93","1490286","0.0-3.0-0.44","24","3","<div style = ""font-size:60px;""> + </div>","null","","","","","","","","","","",""
"","null","learning_trial","html-keyboard-response","94","1492792","0.0-3.0-1.44","24","3","
    <div class = 'grid-container'>
        <div class='header-text'> Friends </div>
        <div>
            Joshua
            <img width='150' style='border:2px black solid;' src='stims/img/CFD-LM-231-214-N.jpg'>
        </div>
        <div> &nbsp; + &nbsp; </div>
        <div>
            Dylan
            <img width='150' style='border:2px black solid;' src='stims/img/CFD-LM-216-082-N.jpg'>
        </div>
        <div class='header-text'> &nbsp; </div>
    </div>
    ","null","2","false","6","stims/img/CFD-LM-216-082-N.jpg","Dylan","7","stims/img/CFD-LM-231-214-N.jpg","Joshua","","",""
"","null","fixation","html-keyboard-response","95","1493297","0.0-3.0-0.45","24","3","<div style = ""font-size:60px;""> + </div>","null","","","","","","","","","","",""
"","null","learning_trial","html-keyboard-response","96","1495804","0.0-3.0-1.45","24","3","
    <div class = 'grid-container'>
        <div class='header-text'> Friends </div>
        <div>
            Angelina
            <img width='150' style='border:2px black solid;' src='stims/img/CFD-LF-214-090-N.jpg'>
        </div>
        <div> &nbsp; + &nbsp; </div>
        <div>
            Laila
            <img width='150' style='border:2px black solid;' src='stims/img/CFD-BF-210-130-N.jpg'>
        </div>
        <div class='header-text'> &nbsp; </div>
    </div>
    ","null","2","false","10","stims/img/CFD-BF-210-130-N.jpg","Laila","12","stims/img/CFD-LF-214-090-N.jpg","Angelina","","",""
"","null","fixation","html-keyboard-response","97","1496311","0.0-3.0-0.46","24","3","<div style = ""font-size:60px;""> + </div>","null","","","","","","","","","","",""
"","null","learning_trial","html-keyboard-response","98","1498818","0.0-3.0-1.46","24","3","
    <div class = 'grid-container'>
        <div class='header-text'> Friends </div>
        <div>
            Daniel
            <img width='150' style='border:2px black solid;' src='stims/img/CFD-AM-238-269-N.jpg'>
        </div>
        <div> &nbsp; + &nbsp; </div>
        <div>
            Christopher
            <img width='150' style='border:2px black solid;' src='stims/img/CFD-BM-210-148-N.jpg'>
        </div>
        <div class='header-text'> &nbsp; </div>
    </div>
    ","null","2","true","11","stims/img/CFD-AM-238-269-N.jpg","Daniel","13","stims/img/CFD-BM-210-148-N.jpg","Christopher","","",""
"","null","fixation","html-keyboard-response","99","1499320","0.0-3.0-0.47","24","3","<div style = ""font-size:60px;""> + </div>","null","","","","","","","","","","",""
"","null","learning_trial","html-keyboard-response","100","1501827","0.0-3.0-1.47","24","3","
    <div class = 'grid-container'>
        <div class='header-text'> Friends </div>
        <div>
            Jasmine
            <img width='150' style='border:2px black solid;' src='stims/img/CFD-AF-256-160-N.jpg'>
        </div>
        <div> &nbsp; + &nbsp; </div>
        <div>
            Dylan
            <img width='150' style='border:2px black solid;' src='stims/img/CFD-LM-216-082-N.jpg'>
        </div>
        <div class='header-text'> &nbsp; </div>
    </div>
    ","null","2","true","4","stims/img/CFD-AF-256-160-N.jpg","Jasmine","6","stims/img/CFD-LM-216-082-N.jpg","Dylan","","",""
"","null","fixation","html-keyboard-response","101","1502333","0.0-3.0-0.48","24","3","<div style = ""font-size:60px;""> + </div>","null","","","","","","","","","","",""
"","null","learning_trial","html-keyboard-response","102","1504841","0.0-3.0-1.48","24","3","
    <div class = 'grid-container'>
        <div class='header-text'> Friends </div>
        <div>
            Christian
            <img width='150' style='border:2px black solid;' src='stims/img/CFD-BM-235-226-N.jpg'>
        </div>
        <div> &nbsp; + &nbsp; </div>
        <div>
            Laila
            <img width='150' style='border:2px black solid;' src='stims/img/CFD-BF-210-130-N.jpg'>
        </div>
        <div class='header-text'> &nbsp; </div>
    </div>
    ","null","2","true","8","stims/img/CFD-BM-235-226-N.jpg","Christian","10","stims/img/CFD-BF-210-130-N.jpg","Laila","","",""
"","null","fixation","html-keyboard-response","103","1505347","0.0-3.0-0.49","24","3","<div style = ""font-size:60px;""> + </div>","null","","","","","","","","","","",""
"","null","learning_trial","html-keyboard-response","104","1507854","0.0-3.0-1.49","24","3","
    <div class = 'grid-container'>
        <div class='header-text'> Friends </div>
        <div>
            Ella
            <img width='150' style='border:2px black solid;' src='stims/img/CFD-WF-213-031-N.jpg'>
        </div>
        <div> &nbsp; + &nbsp; </div>
        <div>
            Evan
            <img width='150' style='border:2px black solid;' src='stims/img/CFD-AM-211-052-N.jpg'>
        </div>
        <div class='header-text'> &nbsp; </div>
    </div>
    ","null","2","true","3","stims/img/CFD-WF-213-031-N.jpg","Ella","5","stims/img/CFD-AM-211-052-N.jpg","Evan","","",""
"","null","fixation","html-keyboard-response","105","1508361","0.0-3.0-0.50","24","3","<div style = ""font-size:60px;""> + </div>","null","","","","","","","","","","",""
"","null","learning_trial","html-keyboard-response","106","1510866","0.0-3.0-1.50","24","3","
    <div class = 'grid-container'>
        <div class='header-text'> Friends </div>
        <div>
            Jasmine
            <img width='150' style='border:2px black solid;' src='stims/img/CFD-AF-256-160-N.jpg'>
        </div>
        <div> &nbsp; + &nbsp; </div>
        <div>
            Evan
            <img width='150' style='border:2px black solid;' src='stims/img/CFD-AM-211-052-N.jpg'>
        </div>
        <div class='header-text'> &nbsp; </div>
    </div>
    ","null","2","true","4","stims/img/CFD-AF-256-160-N.jpg","Jasmine","5","stims/img/CFD-AM-211-052-N.jpg","Evan","","",""
"","17063","break","html-keyboard-response","107","1527929","0.0-3.0-2.50-0.50","24","3","If you'd like to take a break before continuing, 
    please do so now. <p>To continue, please press the spacebar.</p>"," ","","","","","","","","","","",""
"","null","fixation","html-keyboard-response","108","1528435","0.0-3.0-0.51","24","3","<div style = ""font-size:60px;""> + </div>","null","","","","","","","","","","",""
"","null","learning_trial","html-keyboard-response","109","1530943","0.0-3.0-1.51","24","3","
    <div class = 'grid-container'>
        <div class='header-text'> Friends </div>
        <div>
            Dylan
            <img width='150' style='border:2px black solid;' src='stims/img/CFD-LM-216-082-N.jpg'>
        </div>
        <div> &nbsp; + &nbsp; </div>
        <div>
            Joshua
            <img width='150' style='border:2px black solid;' src='stims/img/CFD-LM-231-214-N.jpg'>
        </div>
        <div class='header-text'> &nbsp; </div>
    </div>
    ","null","3","true","6","stims/img/CFD-LM-216-082-N.jpg","Dylan","7","stims/img/CFD-LM-231-214-N.jpg","Joshua","","",""
"","null","fixation","html-keyboard-response","110","1531449","0.0-3.0-0.52","24","3","<div style = ""font-size:60px;""> + </div>","null","","","","","","","","","","",""
"","null","learning_trial","html-keyboard-response","111","1533954","0.0-3.0-1.52","24","3","
    <div class = 'grid-container'>
        <div class='header-text'> Friends </div>
        <div>
            Evan
            <img width='150' style='border:2px black solid;' src='stims/img/CFD-AM-211-052-N.jpg'>
        </div>
        <div> &nbsp; + &nbsp; </div>
        <div>
            Ella
            <img width='150' style='border:2px black solid;' src='stims/img/CFD-WF-213-031-N.jpg'>
        </div>
        <div class='header-text'> &nbsp; </div>
    </div>
    ","null","3","false","3","stims/img/CFD-WF-213-031-N.jpg","Ella","5","stims/img/CFD-AM-211-052-N.jpg","Evan","","",""
"","null","fixation","html-keyboard-response","112","1534460","0.0-3.0-0.53","24","3","<div style = ""font-size:60px;""> + </div>","null","","","","","","","","","","",""
"","null","learning_trial","html-keyboard-response","113","1536968","0.0-3.0-1.53","24","3","
    <div class = 'grid-container'>
        <div class='header-text'> Friends </div>
        <div>
            Christian
            <img width='150' style='border:2px black solid;' src='stims/img/CFD-BM-235-226-N.jpg'>
        </div>
        <div> &nbsp; + &nbsp; </div>
        <div>
            Sarah
            <img width='150' style='border:2px black solid;' src='stims/img/CFD-WF-234-086-N.jpg'>
        </div>
        <div class='header-text'> &nbsp; </div>
    </div>
    ","null","3","false","1","stims/img/CFD-WF-234-086-N.jpg","Sarah","8","stims/img/CFD-BM-235-226-N.jpg","Christian","","",""
"","null","fixation","html-keyboard-response","114","1537475","0.0-3.0-0.54","24","3","<div style = ""font-size:60px;""> + </div>","null","","","","","","","","","","",""
"","null","learning_trial","html-keyboard-response","115","1539981","0.0-3.0-1.54","24","3","
    <div class = 'grid-container'>
        <div class='header-text'> Friends </div>
        <div>
            Laila
            <img width='150' style='border:2px black solid;' src='stims/img/CFD-BF-210-130-N.jpg'>
        </div>
        <div> &nbsp; + &nbsp; </div>
        <div>
            Angelina
            <img width='150' style='border:2px black solid;' src='stims/img/CFD-LF-214-090-N.jpg'>
        </div>
        <div class='header-text'> &nbsp; </div>
    </div>
    ","null","3","true","10","stims/img/CFD-BF-210-130-N.jpg","Laila","12","stims/img/CFD-LF-214-090-N.jpg","Angelina","","",""
"","null","fixation","html-keyboard-response","116","1540488","0.0-3.0-0.55","24","3","<div style = ""font-size:60px;""> + </div>","null","","","","","","","","","","",""
"","null","learning_trial","html-keyboard-response","117","1542995","0.0-3.0-1.55","24","3","
    <div class = 'grid-container'>
        <div class='header-text'> Friends </div>
        <div>
            Angelina
            <img width='150' style='border:2px black solid;' src='stims/img/CFD-LF-214-090-N.jpg'>
        </div>
        <div> &nbsp; + &nbsp; </div>
        <div>
            Christopher
            <img width='150' style='border:2px black solid;' src='stims/img/CFD-BM-210-148-N.jpg'>
        </div>
        <div class='header-text'> &nbsp; </div>
    </div>
    ","null","3","true","12","stims/img/CFD-LF-214-090-N.jpg","Angelina","13","stims/img/CFD-BM-210-148-N.jpg","Christopher","","",""
"","null","fixation","html-keyboard-response","118","1543501","0.0-3.0-0.56","24","3","<div style = ""font-size:60px;""> + </div>","null","","","","","","","","","","",""
"","null","learning_trial","html-keyboard-response","119","1546003","0.0-3.0-1.56","24","3","
    <div class = 'grid-container'>
        <div class='header-text'> Friends </div>
        <div>
            Ella
            <img width='150' style='border:2px black solid;' src='stims/img/CFD-WF-213-031-N.jpg'>
        </div>
        <div> &nbsp; + &nbsp; </div>
        <div>
            Jasmine
            <img width='150' style='border:2px black solid;' src='stims/img/CFD-AF-256-160-N.jpg'>
        </div>
        <div class='header-text'> &nbsp; </div>
    </div>
    ","null","3","true","3","stims/img/CFD-WF-213-031-N.jpg","Ella","4","stims/img/CFD-AF-256-160-N.jpg","Jasmine","","",""
"","null","fixation","html-keyboard-response","120","1546509","0.0-3.0-0.57","24","3","<div style = ""font-size:60px;""> + </div>","null","","","","","","","","","","",""
"","null","learning_trial","html-keyboard-response","121","1549016","0.0-3.0-1.57","24","3","
    <div class = 'grid-container'>
        <div class='header-text'> Friends </div>
        <div>
            Daniel
            <img width='150' style='border:2px black solid;' src='stims/img/CFD-AM-238-269-N.jpg'>
        </div>
        <div> &nbsp; + &nbsp; </div>
        <div>
            Angelina
            <img width='150' style='border:2px black solid;' src='stims/img/CFD-LF-214-090-N.jpg'>
        </div>
        <div class='header-text'> &nbsp; </div>
    </div>
    ","null","3","true","11","stims/img/CFD-AM-238-269-N.jpg","Daniel","12","stims/img/CFD-LF-214-090-N.jpg","Angelina","","",""
"","null","fixation","html-keyboard-response","122","1549522","0.0-3.0-0.58","24","3","<div style = ""font-size:60px;""> + </div>","null","","","","","","","","","","",""
"","null","learning_trial","html-keyboard-response","123","1552028","0.0-3.0-1.58","24","3","
    <div class = 'grid-container'>
        <div class='header-text'> Friends </div>
        <div>
            Christian
            <img width='150' style='border:2px black solid;' src='stims/img/CFD-BM-235-226-N.jpg'>
        </div>
        <div> &nbsp; + &nbsp; </div>
        <div>
            Laila
            <img width='150' style='border:2px black solid;' src='stims/img/CFD-BF-210-130-N.jpg'>
        </div>
        <div class='header-text'> &nbsp; </div>
    </div>
    ","null","3","true","8","stims/img/CFD-BM-235-226-N.jpg","Christian","10","stims/img/CFD-BF-210-130-N.jpg","Laila","","",""
"","null","fixation","html-keyboard-response","124","1552530","0.0-3.0-0.59","24","3","<div style = ""font-size:60px;""> + </div>","null","","","","","","","","","","",""
"","null","learning_trial","html-keyboard-response","125","1555038","0.0-3.0-1.59","24","3","
    <div class = 'grid-container'>
        <div class='header-text'> Friends </div>
        <div>
            Alice
            <img width='150' style='border:2px black solid;' src='stims/img/CFD-AF-224-026-N.jpg'>
        </div>
        <div> &nbsp; + &nbsp; </div>
        <div>
            Christian
            <img width='150' style='border:2px black solid;' src='stims/img/CFD-BM-235-226-N.jpg'>
        </div>
        <div class='header-text'> &nbsp; </div>
    </div>
    ","null","3","false","8","stims/img/CFD-BM-235-226-N.jpg","Christian","9","stims/img/CFD-AF-224-026-N.jpg","Alice","","",""
"","null","fixation","html-keyboard-response","126","1555544","0.0-3.0-0.60","24","3","<div style = ""font-size:60px;""> + </div>","null","","","","","","","","","","",""
"","null","learning_trial","html-keyboard-response","127","1558051","0.0-3.0-1.60","24","3","
    <div class = 'grid-container'>
        <div class='header-text'> Friends </div>
        <div>
            Daniel
            <img width='150' style='border:2px black solid;' src='stims/img/CFD-AM-238-269-N.jpg'>
        </div>
        <div> &nbsp; + &nbsp; </div>
        <div>
            Alice
            <img width='150' style='border:2px black solid;' src='stims/img/CFD-AF-224-026-N.jpg'>
        </div>
        <div class='header-text'> &nbsp; </div>
    </div>
    ","null","3","false","9","stims/img/CFD-AF-224-026-N.jpg","Alice","11","stims/img/CFD-AM-238-269-N.jpg","Daniel","","",""
"","null","fixation","html-keyboard-response","128","1558556","0.0-3.0-0.61","24","3","<div style = ""font-size:60px;""> + </div>","null","","","","","","","","","","",""
"","null","learning_trial","html-keyboard-response","129","1561063","0.0-3.0-1.61","24","3","
    <div class = 'grid-container'>
        <div class='header-text'> Friends </div>
        <div>
            Jasmine
            <img width='150' style='border:2px black solid;' src='stims/img/CFD-AF-256-160-N.jpg'>
        </div>
        <div> &nbsp; + &nbsp; </div>
        <div>
            Dylan
            <img width='150' style='border:2px black solid;' src='stims/img/CFD-LM-216-082-N.jpg'>
        </div>
        <div class='header-text'> &nbsp; </div>
    </div>
    ","null","3","true","4","stims/img/CFD-AF-256-160-N.jpg","Jasmine","6","stims/img/CFD-LM-216-082-N.jpg","Dylan","","",""
"","null","fixation","html-keyboard-response","130","1561569","0.0-3.0-0.62","24","3","<div style = ""font-size:60px;""> + </div>","null","","","","","","","","","","",""
"","null","learning_trial","html-keyboard-response","131","1564072","0.0-3.0-1.62","24","3","
    <div class = 'grid-container'>
        <div class='header-text'> Friends </div>
        <div>
            Sarah
            <img width='150' style='border:2px black solid;' src='stims/img/CFD-WF-234-086-N.jpg'>
        </div>
        <div> &nbsp; + &nbsp; </div>
        <div>
            Lucas
            <img width='150' style='border:2px black solid;' src='stims/img/CFD-WM-214-026-N.jpg'>
        </div>
        <div class='header-text'> &nbsp; </div>
    </div>
    ","null","3","true","1","stims/img/CFD-WF-234-086-N.jpg","Sarah","2","stims/img/CFD-WM-214-026-N.jpg","Lucas","","",""
"","null","fixation","html-keyboard-response","132","1564578","0.0-3.0-0.63","24","3","<div style = ""font-size:60px;""> + </div>","null","","","","","","","","","","",""
"","null","learning_trial","html-keyboard-response","133","1567080","0.0-3.0-1.63","24","3","
    <div class = 'grid-container'>
        <div class='header-text'> Friends </div>
        <div>
            Daniel
            <img width='150' style='border:2px black solid;' src='stims/img/CFD-AM-238-269-N.jpg'>
        </div>
        <div> &nbsp; + &nbsp; </div>
        <div>
            Christopher
            <img width='150' style='border:2px black solid;' src='stims/img/CFD-BM-210-148-N.jpg'>
        </div>
        <div class='header-text'> &nbsp; </div>
    </div>
    ","null","3","true","11","stims/img/CFD-AM-238-269-N.jpg","Daniel","13","stims/img/CFD-BM-210-148-N.jpg","Christopher","","",""
"","null","fixation","html-keyboard-response","134","1567586","0.0-3.0-0.64","24","3","<div style = ""font-size:60px;""> + </div>","null","","","","","","","","","","",""
"","null","learning_trial","html-keyboard-response","135","1570093","0.0-3.0-1.64","24","3","
    <div class = 'grid-container'>
        <div class='header-text'> Friends </div>
        <div>
            Ella
            <img width='150' style='border:2px black solid;' src='stims/img/CFD-WF-213-031-N.jpg'>
        </div>
        <div> &nbsp; + &nbsp; </div>
        <div>
            Lucas
            <img width='150' style='border:2px black solid;' src='stims/img/CFD-WM-214-026-N.jpg'>
        </div>
        <div class='header-text'> &nbsp; </div>
    </div>
    ","null","3","false","2","stims/img/CFD-WM-214-026-N.jpg","Lucas","3","stims/img/CFD-WF-213-031-N.jpg","Ella","","",""
"","null","fixation","html-keyboard-response","136","1570599","0.0-3.0-0.65","24","3","<div style = ""font-size:60px;""> + </div>","null","","","","","","","","","","",""
"","null","learning_trial","html-keyboard-response","137","1573106","0.0-3.0-1.65","24","3","
    <div class = 'grid-container'>
        <div class='header-text'> Friends </div>
        <div>
            Lucas
            <img width='150' style='border:2px black solid;' src='stims/img/CFD-WM-214-026-N.jpg'>
        </div>
        <div> &nbsp; + &nbsp; </div>
        <div>
            Jasmine
            <img width='150' style='border:2px black solid;' src='stims/img/CFD-AF-256-160-N.jpg'>
        </div>
        <div class='header-text'> &nbsp; </div>
    </div>
    ","null","3","true","2","stims/img/CFD-WM-214-026-N.jpg","Lucas","4","stims/img/CFD-AF-256-160-N.jpg","Jasmine","","",""
"","null","fixation","html-keyboard-response","138","1573608","0.0-3.0-0.66","24","3","<div style = ""font-size:60px;""> + </div>","null","","","","","","","","","","",""
"","null","learning_trial","html-keyboard-response","139","1576115","0.0-3.0-1.66","24","3","
    <div class = 'grid-container'>
        <div class='header-text'> Friends </div>
        <div>
            Jasmine
            <img width='150' style='border:2px black solid;' src='stims/img/CFD-AF-256-160-N.jpg'>
        </div>
        <div> &nbsp; + &nbsp; </div>
        <div>
            Evan
            <img width='150' style='border:2px black solid;' src='stims/img/CFD-AM-211-052-N.jpg'>
        </div>
        <div class='header-text'> &nbsp; </div>
    </div>
    ","null","3","true","4","stims/img/CFD-AF-256-160-N.jpg","Jasmine","5","stims/img/CFD-AM-211-052-N.jpg","Evan","","",""
"","null","fixation","html-keyboard-response","140","1576621","0.0-3.0-0.67","24","3","<div style = ""font-size:60px;""> + </div>","null","","","","","","","","","","",""
"","null","learning_trial","html-keyboard-response","141","1579129","0.0-3.0-1.67","24","3","
    <div class = 'grid-container'>
        <div class='header-text'> Friends </div>
        <div>
            Evan
            <img width='150' style='border:2px black solid;' src='stims/img/CFD-AM-211-052-N.jpg'>
        </div>
        <div> &nbsp; + &nbsp; </div>
        <div>
            Joshua
            <img width='150' style='border:2px black solid;' src='stims/img/CFD-LM-231-214-N.jpg'>
        </div>
        <div class='header-text'> &nbsp; </div>
    </div>
    ","null","3","true","5","stims/img/CFD-AM-211-052-N.jpg","Evan","7","stims/img/CFD-LM-231-214-N.jpg","Joshua","","",""
"","19937","break","html-keyboard-response","142","1599067","0.0-3.0-2.67-0.67","24","3","If you'd like to take a break before continuing, 
    please do so now. <p>To continue, please press the spacebar.</p>"," ","","","","","","","","","","",""
"","null","fixation","html-keyboard-response","143","1599570","0.0-3.0-0.68","24","3","<div style = ""font-size:60px;""> + </div>","null","","","","","","","","","","",""
"","null","learning_trial","html-keyboard-response","144","1602075","0.0-3.0-1.68","24","3","
    <div class = 'grid-container'>
        <div class='header-text'> Friends </div>
        <div>
            Christian
            <img width='150' style='border:2px black solid;' src='stims/img/CFD-BM-235-226-N.jpg'>
        </div>
        <div> &nbsp; + &nbsp; </div>
        <div>
            Sarah
            <img width='150' style='border:2px black solid;' src='stims/img/CFD-WF-234-086-N.jpg'>
        </div>
        <div class='header-text'> &nbsp; </div>
    </div>
    ","null","4","false","1","stims/img/CFD-WF-234-086-N.jpg","Sarah","8","stims/img/CFD-BM-235-226-N.jpg","Christian","","",""
"","null","fixation","html-keyboard-response","145","1602578","0.0-3.0-0.69","24","3","<div style = ""font-size:60px;""> + </div>","null","","","","","","","","","","",""
"","null","learning_trial","html-keyboard-response","146","1605085","0.0-3.0-1.69","24","3","
    <div class = 'grid-container'>
        <div class='header-text'> Friends </div>
        <div>
            Ella
            <img width='150' style='border:2px black solid;' src='stims/img/CFD-WF-213-031-N.jpg'>
        </div>
        <div> &nbsp; + &nbsp; </div>
        <div>
            Jasmine
            <img width='150' style='border:2px black solid;' src='stims/img/CFD-AF-256-160-N.jpg'>
        </div>
        <div class='header-text'> &nbsp; </div>
    </div>
    ","null","4","true","3","stims/img/CFD-WF-213-031-N.jpg","Ella","4","stims/img/CFD-AF-256-160-N.jpg","Jasmine","","",""
"","null","fixation","html-keyboard-response","147","1605591","0.0-3.0-0.70","24","3","<div style = ""font-size:60px;""> + </div>","null","","","","","","","","","","",""
"","null","learning_trial","html-keyboard-response","148","1608099","0.0-3.0-1.70","24","3","
    <div class = 'grid-container'>
        <div class='header-text'> Friends </div>
        <div>
            Jasmine
            <img width='150' style='border:2px black solid;' src='stims/img/CFD-AF-256-160-N.jpg'>
        </div>
        <div> &nbsp; + &nbsp; </div>
        <div>
            Lucas
            <img width='150' style='border:2px black solid;' src='stims/img/CFD-WM-214-026-N.jpg'>
        </div>
        <div class='header-text'> &nbsp; </div>
    </div>
    ","null","4","false","2","stims/img/CFD-WM-214-026-N.jpg","Lucas","4","stims/img/CFD-AF-256-160-N.jpg","Jasmine","","",""
"","null","fixation","html-keyboard-response","149","1608604","0.0-3.0-0.71","24","3","<div style = ""font-size:60px;""> + </div>","null","","","","","","","","","","",""
"","null","learning_trial","html-keyboard-response","150","1611109","0.0-3.0-1.71","24","3","
    <div class = 'grid-container'>
        <div class='header-text'> Friends </div>
        <div>
            Christian
            <img width='150' style='border:2px black solid;' src='stims/img/CFD-BM-235-226-N.jpg'>
        </div>
        <div> &nbsp; + &nbsp; </div>
        <div>
            Laila
            <img width='150' style='border:2px black solid;' src='stims/img/CFD-BF-210-130-N.jpg'>
        </div>
        <div class='header-text'> &nbsp; </div>
    </div>
    ","null","4","true","8","stims/img/CFD-BM-235-226-N.jpg","Christian","10","stims/img/CFD-BF-210-130-N.jpg","Laila","","",""
"","null","fixation","html-keyboard-response","151","1611615","0.0-3.0-0.72","24","3","<div style = ""font-size:60px;""> + </div>","null","","","","","","","","","","",""
"","null","learning_trial","html-keyboard-response","152","1614119","0.0-3.0-1.72","24","3","
    <div class = 'grid-container'>
        <div class='header-text'> Friends </div>
        <div>
            Daniel
            <img width='150' style='border:2px black solid;' src='stims/img/CFD-AM-238-269-N.jpg'>
        </div>
        <div> &nbsp; + &nbsp; </div>
        <div>
            Alice
            <img width='150' style='border:2px black solid;' src='stims/img/CFD-AF-224-026-N.jpg'>
        </div>
        <div class='header-text'> &nbsp; </div>
    </div>
    ","null","4","false","9","stims/img/CFD-AF-224-026-N.jpg","Alice","11","stims/img/CFD-AM-238-269-N.jpg","Daniel","","",""
"","null","fixation","html-keyboard-response","153","1614626","0.0-3.0-0.73","24","3","<div style = ""font-size:60px;""> + </div>","null","","","","","","","","","","",""
"","null","learning_trial","html-keyboard-response","154","1617132","0.0-3.0-1.73","24","3","
    <div class = 'grid-container'>
        <div class='header-text'> Friends </div>
        <div>
            Angelina
            <img width='150' style='border:2px black solid;' src='stims/img/CFD-LF-214-090-N.jpg'>
        </div>
        <div> &nbsp; + &nbsp; </div>
        <div>
            Christopher
            <img width='150' style='border:2px black solid;' src='stims/img/CFD-BM-210-148-N.jpg'>
        </div>
        <div class='header-text'> &nbsp; </div>
    </div>
    ","null","4","true","12","stims/img/CFD-LF-214-090-N.jpg","Angelina","13","stims/img/CFD-BM-210-148-N.jpg","Christopher","","",""
"","null","fixation","html-keyboard-response","155","1617638","0.0-3.0-0.74","24","3","<div style = ""font-size:60px;""> + </div>","null","","","","","","","","","","",""
"","null","learning_trial","html-keyboard-response","156","1620145","0.0-3.0-1.74","24","3","
    <div class = 'grid-container'>
        <div class='header-text'> Friends </div>
        <div>
            Ella
            <img width='150' style='border:2px black solid;' src='stims/img/CFD-WF-213-031-N.jpg'>
        </div>
        <div> &nbsp; + &nbsp; </div>
        <div>
            Lucas
            <img width='150' style='border:2px black solid;' src='stims/img/CFD-WM-214-026-N.jpg'>
        </div>
        <div class='header-text'> &nbsp; </div>
    </div>
    ","null","4","false","2","stims/img/CFD-WM-214-026-N.jpg","Lucas","3","stims/img/CFD-WF-213-031-N.jpg","Ella","","",""
"","null","fixation","html-keyboard-response","157","1620652","0.0-3.0-0.75","24","3","<div style = ""font-size:60px;""> + </div>","null","","","","","","","","","","",""
"","null","learning_trial","html-keyboard-response","158","1623158","0.0-3.0-1.75","24","3","
    <div class = 'grid-container'>
        <div class='header-text'> Friends </div>
        <div>
            Sarah
            <img width='150' style='border:2px black solid;' src='stims/img/CFD-WF-234-086-N.jpg'>
        </div>
        <div> &nbsp; + &nbsp; </div>
        <div>
            Lucas
            <img width='150' style='border:2px black solid;' src='stims/img/CFD-WM-214-026-N.jpg'>
        </div>
        <div class='header-text'> &nbsp; </div>
    </div>
    ","null","4","true","1","stims/img/CFD-WF-234-086-N.jpg","Sarah","2","stims/img/CFD-WM-214-026-N.jpg","Lucas","","",""
"","null","fixation","html-keyboard-response","159","1623664","0.0-3.0-0.76","24","3","<div style = ""font-size:60px;""> + </div>","null","","","","","","","","","","",""
"","null","learning_trial","html-keyboard-response","160","1626171","0.0-3.0-1.76","24","3","
    <div class = 'grid-container'>
        <div class='header-text'> Friends </div>
        <div>
            Angelina
            <img width='150' style='border:2px black solid;' src='stims/img/CFD-LF-214-090-N.jpg'>
        </div>
        <div> &nbsp; + &nbsp; </div>
        <div>
            Laila
            <img width='150' style='border:2px black solid;' src='stims/img/CFD-BF-210-130-N.jpg'>
        </div>
        <div class='header-text'> &nbsp; </div>
    </div>
    ","null","4","false","10","stims/img/CFD-BF-210-130-N.jpg","Laila","12","stims/img/CFD-LF-214-090-N.jpg","Angelina","","",""
"","null","fixation","html-keyboard-response","161","1626678","0.0-3.0-0.77","24","3","<div style = ""font-size:60px;""> + </div>","null","","","","","","","","","","",""
"","null","learning_trial","html-keyboard-response","162","1629181","0.0-3.0-1.77","24","3","
    <div class = 'grid-container'>
        <div class='header-text'> Friends </div>
        <div>
            Ella
            <img width='150' style='border:2px black solid;' src='stims/img/CFD-WF-213-031-N.jpg'>
        </div>
        <div> &nbsp; + &nbsp; </div>
        <div>
            Evan
            <img width='150' style='border:2px black solid;' src='stims/img/CFD-AM-211-052-N.jpg'>
        </div>
        <div class='header-text'> &nbsp; </div>
    </div>
    ","null","4","true","3","stims/img/CFD-WF-213-031-N.jpg","Ella","5","stims/img/CFD-AM-211-052-N.jpg","Evan","","",""
"","null","fixation","html-keyboard-response","163","1629686","0.0-3.0-0.78","24","3","<div style = ""font-size:60px;""> + </div>","null","","","","","","","","","","",""
"","null","learning_trial","html-keyboard-response","164","1632193","0.0-3.0-1.78","24","3","
    <div class = 'grid-container'>
        <div class='header-text'> Friends </div>
        <div>
            Christopher
            <img width='150' style='border:2px black solid;' src='stims/img/CFD-BM-210-148-N.jpg'>
        </div>
        <div> &nbsp; + &nbsp; </div>
        <div>
            Daniel
            <img width='150' style='border:2px black solid;' src='stims/img/CFD-AM-238-269-N.jpg'>
        </div>
        <div class='header-text'> &nbsp; </div>
    </div>
    ","null","4","false","11","stims/img/CFD-AM-238-269-N.jpg","Daniel","13","stims/img/CFD-BM-210-148-N.jpg","Christopher","","",""
"","null","fixation","html-keyboard-response","165","1632700","0.0-3.0-0.79","24","3","<div style = ""font-size:60px;""> + </div>","null","","","","","","","","","","",""
"","null","learning_trial","html-keyboard-response","166","1635207","0.0-3.0-1.79","24","3","
    <div class = 'grid-container'>
        <div class='header-text'> Friends </div>
        <div>
            Joshua
            <img width='150' style='border:2px black solid;' src='stims/img/CFD-LM-231-214-N.jpg'>
        </div>
        <div> &nbsp; + &nbsp; </div>
        <div>
            Evan
            <img width='150' style='border:2px black solid;' src='stims/img/CFD-AM-211-052-N.jpg'>
        </div>
        <div class='header-text'> &nbsp; </div>
    </div>
    ","null","4","false","5","stims/img/CFD-AM-211-052-N.jpg","Evan","7","stims/img/CFD-LM-231-214-N.jpg","Joshua","","",""
"","null","fixation","html-keyboard-response","167","1635708","0.0-3.0-0.80","24","3","<div style = ""font-size:60px;""> + </div>","null","","","","","","","","","","",""
"","null","learning_trial","html-keyboard-response","168","1638215","0.0-3.0-1.80","24","3","
    <div class = 'grid-container'>
        <div class='header-text'> Friends </div>
        <div>
            Christian
            <img width='150' style='border:2px black solid;' src='stims/img/CFD-BM-235-226-N.jpg'>
        </div>
        <div> &nbsp; + &nbsp; </div>
        <div>
            Alice
            <img width='150' style='border:2px black solid;' src='stims/img/CFD-AF-224-026-N.jpg'>
        </div>
        <div class='header-text'> &nbsp; </div>
    </div>
    ","null","4","true","8","stims/img/CFD-BM-235-226-N.jpg","Christian","9","stims/img/CFD-AF-224-026-N.jpg","Alice","","",""
"","null","fixation","html-keyboard-response","169","1638722","0.0-3.0-0.81","24","3","<div style = ""font-size:60px;""> + </div>","null","","","","","","","","","","",""
"","null","learning_trial","html-keyboard-response","170","1641229","0.0-3.0-1.81","24","3","
    <div class = 'grid-container'>
        <div class='header-text'> Friends </div>
        <div>
            Jasmine
            <img width='150' style='border:2px black solid;' src='stims/img/CFD-AF-256-160-N.jpg'>
        </div>
        <div> &nbsp; + &nbsp; </div>
        <div>
            Dylan
            <img width='150' style='border:2px black solid;' src='stims/img/CFD-LM-216-082-N.jpg'>
        </div>
        <div class='header-text'> &nbsp; </div>
    </div>
    ","null","4","true","4","stims/img/CFD-AF-256-160-N.jpg","Jasmine","6","stims/img/CFD-LM-216-082-N.jpg","Dylan","","",""
"","null","fixation","html-keyboard-response","171","1641736","0.0-3.0-0.82","24","3","<div style = ""font-size:60px;""> + </div>","null","","","","","","","","","","",""
"","null","learning_trial","html-keyboard-response","172","1644242","0.0-3.0-1.82","24","3","
    <div class = 'grid-container'>
        <div class='header-text'> Friends </div>
        <div>
            Joshua
            <img width='150' style='border:2px black solid;' src='stims/img/CFD-LM-231-214-N.jpg'>
        </div>
        <div> &nbsp; + &nbsp; </div>
        <div>
            Dylan
            <img width='150' style='border:2px black solid;' src='stims/img/CFD-LM-216-082-N.jpg'>
        </div>
        <div class='header-text'> &nbsp; </div>
    </div>
    ","null","4","false","6","stims/img/CFD-LM-216-082-N.jpg","Dylan","7","stims/img/CFD-LM-231-214-N.jpg","Joshua","","",""
"","null","fixation","html-keyboard-response","173","1644749","0.0-3.0-0.83","24","3","<div style = ""font-size:60px;""> + </div>","null","","","","","","","","","","",""
"","null","learning_trial","html-keyboard-response","174","1647255","0.0-3.0-1.83","24","3","
    <div class = 'grid-container'>
        <div class='header-text'> Friends </div>
        <div>
            Daniel
            <img width='150' style='border:2px black solid;' src='stims/img/CFD-AM-238-269-N.jpg'>
        </div>
        <div> &nbsp; + &nbsp; </div>
        <div>
            Angelina
            <img width='150' style='border:2px black solid;' src='stims/img/CFD-LF-214-090-N.jpg'>
        </div>
        <div class='header-text'> &nbsp; </div>
    </div>
    ","null","4","true","11","stims/img/CFD-AM-238-269-N.jpg","Daniel","12","stims/img/CFD-LF-214-090-N.jpg","Angelina","","",""
"","null","fixation","html-keyboard-response","175","1647762","0.0-3.0-0.84","24","3","<div style = ""font-size:60px;""> + </div>","null","","","","","","","","","","",""
"","null","learning_trial","html-keyboard-response","176","1650268","0.0-3.0-1.84","24","3","
    <div class = 'grid-container'>
        <div class='header-text'> Friends </div>
        <div>
            Evan
            <img width='150' style='border:2px black solid;' src='stims/img/CFD-AM-211-052-N.jpg'>
        </div>
        <div> &nbsp; + &nbsp; </div>
        <div>
            Jasmine
            <img width='150' style='border:2px black solid;' src='stims/img/CFD-AF-256-160-N.jpg'>
        </div>
        <div class='header-text'> &nbsp; </div>
    </div>
    ","null","4","false","4","stims/img/CFD-AF-256-160-N.jpg","Jasmine","5","stims/img/CFD-AM-211-052-N.jpg","Evan","","",""
"","18296","break","html-keyboard-response","177","1668565","0.0-3.0-2.84-0.84","24","3","If you'd like to take a break before continuing, 
    please do so now. <p>To continue, please press the spacebar.</p>"," ","","","","","","","","","","",""
"","null","fixation","html-keyboard-response","178","1669072","0.0-3.0-0.85","24","3","<div style = ""font-size:60px;""> + </div>","null","","","","","","","","","","",""
"","null","learning_trial","html-keyboard-response","179","1671576","0.0-3.0-1.85","24","3","
    <div class = 'grid-container'>
        <div class='header-text'> Friends </div>
        <div>
            Christian
            <img width='150' style='border:2px black solid;' src='stims/img/CFD-BM-235-226-N.jpg'>
        </div>
        <div> &nbsp; + &nbsp; </div>
        <div>
            Laila
            <img width='150' style='border:2px black solid;' src='stims/img/CFD-BF-210-130-N.jpg'>
        </div>
        <div class='header-text'> &nbsp; </div>
    </div>
    ","null","5","true","8","stims/img/CFD-BM-235-226-N.jpg","Christian","10","stims/img/CFD-BF-210-130-N.jpg","Laila","","",""
"","null","fixation","html-keyboard-response","180","1672083","0.0-3.0-0.86","24","3","<div style = ""font-size:60px;""> + </div>","null","","","","","","","","","","",""
"","null","learning_trial","html-keyboard-response","181","1674590","0.0-3.0-1.86","24","3","
    <div class = 'grid-container'>
        <div class='header-text'> Friends </div>
        <div>
            Angelina
            <img width='150' style='border:2px black solid;' src='stims/img/CFD-LF-214-090-N.jpg'>
        </div>
        <div> &nbsp; + &nbsp; </div>
        <div>
            Laila
            <img width='150' style='border:2px black solid;' src='stims/img/CFD-BF-210-130-N.jpg'>
        </div>
        <div class='header-text'> &nbsp; </div>
    </div>
    ","null","5","false","10","stims/img/CFD-BF-210-130-N.jpg","Laila","12","stims/img/CFD-LF-214-090-N.jpg","Angelina","","",""
"","null","fixation","html-keyboard-response","182","1675098","0.0-3.0-0.87","24","3","<div style = ""font-size:60px;""> + </div>","null","","","","","","","","","","",""
"","null","learning_trial","html-keyboard-response","183","1677606","0.0-3.0-1.87","24","3","
    <div class = 'grid-container'>
        <div class='header-text'> Friends </div>
        <div>
            Alice
            <img width='150' style='border:2px black solid;' src='stims/img/CFD-AF-224-026-N.jpg'>
        </div>
        <div> &nbsp; + &nbsp; </div>
        <div>
            Daniel
            <img width='150' style='border:2px black solid;' src='stims/img/CFD-AM-238-269-N.jpg'>
        </div>
        <div class='header-text'> &nbsp; </div>
    </div>
    ","null","5","true","9","stims/img/CFD-AF-224-026-N.jpg","Alice","11","stims/img/CFD-AM-238-269-N.jpg","Daniel","","",""
"","null","fixation","html-keyboard-response","184","1678113","0.0-3.0-0.88","24","3","<div style = ""font-size:60px;""> + </div>","null","","","","","","","","","","",""
"","null","learning_trial","html-keyboard-response","185","1680621","0.0-3.0-1.88","24","3","
    <div class = 'grid-container'>
        <div class='header-text'> Friends </div>
        <div>
            Ella
            <img width='150' style='border:2px black solid;' src='stims/img/CFD-WF-213-031-N.jpg'>
        </div>
        <div> &nbsp; + &nbsp; </div>
        <div>
            Jasmine
            <img width='150' style='border:2px black solid;' src='stims/img/CFD-AF-256-160-N.jpg'>
        </div>
        <div class='header-text'> &nbsp; </div>
    </div>
    ","null","5","true","3","stims/img/CFD-WF-213-031-N.jpg","Ella","4","stims/img/CFD-AF-256-160-N.jpg","Jasmine","","",""
"","null","fixation","html-keyboard-response","186","1681128","0.0-3.0-0.89","24","3","<div style = ""font-size:60px;""> + </div>","null","","","","","","","","","","",""
"","null","learning_trial","html-keyboard-response","187","1683636","0.0-3.0-1.89","24","3","
    <div class = 'grid-container'>
        <div class='header-text'> Friends </div>
        <div>
            Lucas
            <img width='150' style='border:2px black solid;' src='stims/img/CFD-WM-214-026-N.jpg'>
        </div>
        <div> &nbsp; + &nbsp; </div>
        <div>
            Jasmine
            <img width='150' style='border:2px black solid;' src='stims/img/CFD-AF-256-160-N.jpg'>
        </div>
        <div class='header-text'> &nbsp; </div>
    </div>
    ","null","5","true","2","stims/img/CFD-WM-214-026-N.jpg","Lucas","4","stims/img/CFD-AF-256-160-N.jpg","Jasmine","","",""
"","null","fixation","html-keyboard-response","188","1684142","0.0-3.0-0.90","24","3","<div style = ""font-size:60px;""> + </div>","null","","","","","","","","","","",""
"","null","learning_trial","html-keyboard-response","189","1686649","0.0-3.0-1.90","24","3","
    <div class = 'grid-container'>
        <div class='header-text'> Friends </div>
        <div>
            Daniel
            <img width='150' style='border:2px black solid;' src='stims/img/CFD-AM-238-269-N.jpg'>
        </div>
        <div> &nbsp; + &nbsp; </div>
        <div>
            Christopher
            <img width='150' style='border:2px black solid;' src='stims/img/CFD-BM-210-148-N.jpg'>
        </div>
        <div class='header-text'> &nbsp; </div>
    </div>
    ","null","5","true","11","stims/img/CFD-AM-238-269-N.jpg","Daniel","13","stims/img/CFD-BM-210-148-N.jpg","Christopher","","",""
"","null","fixation","html-keyboard-response","190","1687154","0.0-3.0-0.91","24","3","<div style = ""font-size:60px;""> + </div>","null","","","","","","","","","","",""
"","null","learning_trial","html-keyboard-response","191","1689661","0.0-3.0-1.91","24","3","
    <div class = 'grid-container'>
        <div class='header-text'> Friends </div>
        <div>
            Sarah
            <img width='150' style='border:2px black solid;' src='stims/img/CFD-WF-234-086-N.jpg'>
        </div>
        <div> &nbsp; + &nbsp; </div>
        <div>
            Lucas
            <img width='150' style='border:2px black solid;' src='stims/img/CFD-WM-214-026-N.jpg'>
        </div>
        <div class='header-text'> &nbsp; </div>
    </div>
    ","null","5","true","1","stims/img/CFD-WF-234-086-N.jpg","Sarah","2","stims/img/CFD-WM-214-026-N.jpg","Lucas","","",""
"","null","fixation","html-keyboard-response","192","1690167","0.0-3.0-0.92","24","3","<div style = ""font-size:60px;""> + </div>","null","","","","","","","","","","",""
"","null","learning_trial","html-keyboard-response","193","1692675","0.0-3.0-1.92","24","3","
    <div class = 'grid-container'>
        <div class='header-text'> Friends </div>
        <div>
            Jasmine
            <img width='150' style='border:2px black solid;' src='stims/img/CFD-AF-256-160-N.jpg'>
        </div>
        <div> &nbsp; + &nbsp; </div>
        <div>
            Dylan
            <img width='150' style='border:2px black solid;' src='stims/img/CFD-LM-216-082-N.jpg'>
        </div>
        <div class='header-text'> &nbsp; </div>
    </div>
    ","null","5","true","4","stims/img/CFD-AF-256-160-N.jpg","Jasmine","6","stims/img/CFD-LM-216-082-N.jpg","Dylan","","",""
"","null","fixation","html-keyboard-response","194","1693176","0.0-3.0-0.93","24","3","<div style = ""font-size:60px;""> + </div>","null","","","","","","","","","","",""
"","null","learning_trial","html-keyboard-response","195","1695683","0.0-3.0-1.93","24","3","
    <div class = 'grid-container'>
        <div class='header-text'> Friends </div>
        <div>
            Ella
            <img width='150' style='border:2px black solid;' src='stims/img/CFD-WF-213-031-N.jpg'>
        </div>
        <div> &nbsp; + &nbsp; </div>
        <div>
            Evan
            <img width='150' style='border:2px black solid;' src='stims/img/CFD-AM-211-052-N.jpg'>
        </div>
        <div class='header-text'> &nbsp; </div>
    </div>
    ","null","5","true","3","stims/img/CFD-WF-213-031-N.jpg","Ella","5","stims/img/CFD-AM-211-052-N.jpg","Evan","","",""
"","null","fixation","html-keyboard-response","196","1696188","0.0-3.0-0.94","24","3","<div style = ""font-size:60px;""> + </div>","null","","","","","","","","","","",""
"","null","learning_trial","html-keyboard-response","197","1698690","0.0-3.0-1.94","24","3","
    <div class = 'grid-container'>
        <div class='header-text'> Friends </div>
        <div>
            Sarah
            <img width='150' style='border:2px black solid;' src='stims/img/CFD-WF-234-086-N.jpg'>
        </div>
        <div> &nbsp; + &nbsp; </div>
        <div>
            Christian
            <img width='150' style='border:2px black solid;' src='stims/img/CFD-BM-235-226-N.jpg'>
        </div>
        <div class='header-text'> &nbsp; </div>
    </div>
    ","null","5","true","1","stims/img/CFD-WF-234-086-N.jpg","Sarah","8","stims/img/CFD-BM-235-226-N.jpg","Christian","","",""
"","null","fixation","html-keyboard-response","198","1699196","0.0-3.0-0.95","24","3","<div style = ""font-size:60px;""> + </div>","null","","","","","","","","","","",""
"","null","learning_trial","html-keyboard-response","199","1701702","0.0-3.0-1.95","24","3","
    <div class = 'grid-container'>
        <div class='header-text'> Friends </div>
        <div>
            Evan
            <img width='150' style='border:2px black solid;' src='stims/img/CFD-AM-211-052-N.jpg'>
        </div>
        <div> &nbsp; + &nbsp; </div>
        <div>
            Jasmine
            <img width='150' style='border:2px black solid;' src='stims/img/CFD-AF-256-160-N.jpg'>
        </div>
        <div class='header-text'> &nbsp; </div>
    </div>
    ","null","5","false","4","stims/img/CFD-AF-256-160-N.jpg","Jasmine","5","stims/img/CFD-AM-211-052-N.jpg","Evan","","",""
"","null","fixation","html-keyboard-response","200","1702203","0.0-3.0-0.96","24","3","<div style = ""font-size:60px;""> + </div>","null","","","","","","","","","","",""
"","null","learning_trial","html-keyboard-response","201","1704711","0.0-3.0-1.96","24","3","
    <div class = 'grid-container'>
        <div class='header-text'> Friends </div>
        <div>
            Lucas
            <img width='150' style='border:2px black solid;' src='stims/img/CFD-WM-214-026-N.jpg'>
        </div>
        <div> &nbsp; + &nbsp; </div>
        <div>
            Ella
            <img width='150' style='border:2px black solid;' src='stims/img/CFD-WF-213-031-N.jpg'>
        </div>
        <div class='header-text'> &nbsp; </div>
    </div>
    ","null","5","true","2","stims/img/CFD-WM-214-026-N.jpg","Lucas","3","stims/img/CFD-WF-213-031-N.jpg","Ella","","",""
"","null","fixation","html-keyboard-response","202","1705214","0.0-3.0-0.97","24","3","<div style = ""font-size:60px;""> + </div>","null","","","","","","","","","","",""
"","null","learning_trial","html-keyboard-response","203","1707719","0.0-3.0-1.97","24","3","
    <div class = 'grid-container'>
        <div class='header-text'> Friends </div>
        <div>
            Angelina
            <img width='150' style='border:2px black solid;' src='stims/img/CFD-LF-214-090-N.jpg'>
        </div>
        <div> &nbsp; + &nbsp; </div>
        <div>
            Christopher
            <img width='150' style='border:2px black solid;' src='stims/img/CFD-BM-210-148-N.jpg'>
        </div>
        <div class='header-text'> &nbsp; </div>
    </div>
    ","null","5","true","12","stims/img/CFD-LF-214-090-N.jpg","Angelina","13","stims/img/CFD-BM-210-148-N.jpg","Christopher","","",""
"","null","fixation","html-keyboard-response","204","1708225","0.0-3.0-0.98","24","3","<div style = ""font-size:60px;""> + </div>","null","","","","","","","","","","",""
"","null","learning_trial","html-keyboard-response","205","1710733","0.0-3.0-1.98","24","3","
    <div class = 'grid-container'>
        <div class='header-text'> Friends </div>
        <div>
            Joshua
            <img width='150' style='border:2px black solid;' src='stims/img/CFD-LM-231-214-N.jpg'>
        </div>
        <div> &nbsp; + &nbsp; </div>
        <div>
            Evan
            <img width='150' style='border:2px black solid;' src='stims/img/CFD-AM-211-052-N.jpg'>
        </div>
        <div class='header-text'> &nbsp; </div>
    </div>
    ","null","5","false","5","stims/img/CFD-AM-211-052-N.jpg","Evan","7","stims/img/CFD-LM-231-214-N.jpg","Joshua","","",""
"","null","fixation","html-keyboard-response","206","1711239","0.0-3.0-0.99","24","3","<div style = ""font-size:60px;""> + </div>","null","","","","","","","","","","",""
"","null","learning_trial","html-keyboard-response","207","1713746","0.0-3.0-1.99","24","3","
    <div class = 'grid-container'>
        <div class='header-text'> Friends </div>
        <div>
            Angelina
            <img width='150' style='border:2px black solid;' src='stims/img/CFD-LF-214-090-N.jpg'>
        </div>
        <div> &nbsp; + &nbsp; </div>
        <div>
            Daniel
            <img width='150' style='border:2px black solid;' src='stims/img/CFD-AM-238-269-N.jpg'>
        </div>
        <div class='header-text'> &nbsp; </div>
    </div>
    ","null","5","false","11","stims/img/CFD-AM-238-269-N.jpg","Daniel","12","stims/img/CFD-LF-214-090-N.jpg","Angelina","","",""
"","null","fixation","html-keyboard-response","208","1714252","0.0-3.0-0.100","24","3","<div style = ""font-size:60px;""> + </div>","null","","","","","","","","","","",""
"","null","learning_trial","html-keyboard-response","209","1716759","0.0-3.0-1.100","24","3","
    <div class = 'grid-container'>
        <div class='header-text'> Friends </div>
        <div>
            Joshua
            <img width='150' style='border:2px black solid;' src='stims/img/CFD-LM-231-214-N.jpg'>
        </div>
        <div> &nbsp; + &nbsp; </div>
        <div>
            Dylan
            <img width='150' style='border:2px black solid;' src='stims/img/CFD-LM-216-082-N.jpg'>
        </div>
        <div class='header-text'> &nbsp; </div>
    </div>
    ","null","5","false","6","stims/img/CFD-LM-216-082-N.jpg","Dylan","7","stims/img/CFD-LM-231-214-N.jpg","Joshua","","",""
"","null","fixation","html-keyboard-response","210","1717265","0.0-3.0-0.101","24","3","<div style = ""font-size:60px;""> + </div>","null","","","","","","","","","","",""
"","null","learning_trial","html-keyboard-response","211","1719772","0.0-3.0-1.101","24","3","
    <div class = 'grid-container'>
        <div class='header-text'> Friends </div>
        <div>
            Alice
            <img width='150' style='border:2px black solid;' src='stims/img/CFD-AF-224-026-N.jpg'>
        </div>
        <div> &nbsp; + &nbsp; </div>
        <div>
            Christian
            <img width='150' style='border:2px black solid;' src='stims/img/CFD-BM-235-226-N.jpg'>
        </div>
        <div class='header-text'> &nbsp; </div>
    </div>
    ","null","5","false","8","stims/img/CFD-BM-235-226-N.jpg","Christian","9","stims/img/CFD-AF-224-026-N.jpg","Alice","","",""
"","15913","break","html-keyboard-response","212","1735686","0.0-3.0-2.101-0.101","24","3","If you'd like to take a break before continuing, 
    please do so now. <p>To continue, please press the spacebar.</p>"," ","","","","","","","","","","",""
"","null","fixation","html-keyboard-response","213","1736187","0.0-3.0-0.102","24","3","<div style = ""font-size:60px;""> + </div>","null","","","","","","","","","","",""
"","null","learning_trial","html-keyboard-response","214","1738694","0.0-3.0-1.102","24","3","
    <div class = 'grid-container'>
        <div class='header-text'> Friends </div>
        <div>
            Alice
            <img width='150' style='border:2px black solid;' src='stims/img/CFD-AF-224-026-N.jpg'>
        </div>
        <div> &nbsp; + &nbsp; </div>
        <div>
            Daniel
            <img width='150' style='border:2px black solid;' src='stims/img/CFD-AM-238-269-N.jpg'>
        </div>
        <div class='header-text'> &nbsp; </div>
    </div>
    ","null","6","true","9","stims/img/CFD-AF-224-026-N.jpg","Alice","11","stims/img/CFD-AM-238-269-N.jpg","Daniel","","",""
"","null","fixation","html-keyboard-response","215","1739201","0.0-3.0-0.103","24","3","<div style = ""font-size:60px;""> + </div>","null","","","","","","","","","","",""
"","null","learning_trial","html-keyboard-response","216","1741708","0.0-3.0-1.103","24","3","
    <div class = 'grid-container'>
        <div class='header-text'> Friends </div>
        <div>
            Angelina
            <img width='150' style='border:2px black solid;' src='stims/img/CFD-LF-214-090-N.jpg'>
        </div>
        <div> &nbsp; + &nbsp; </div>
        <div>
            Daniel
            <img width='150' style='border:2px black solid;' src='stims/img/CFD-AM-238-269-N.jpg'>
        </div>
        <div class='header-text'> &nbsp; </div>
    </div>
    ","null","6","false","11","stims/img/CFD-AM-238-269-N.jpg","Daniel","12","stims/img/CFD-LF-214-090-N.jpg","Angelina","","",""
"","null","fixation","html-keyboard-response","217","1742215","0.0-3.0-0.104","24","3","<div style = ""font-size:60px;""> + </div>","null","","","","","","","","","","",""
"","null","learning_trial","html-keyboard-response","218","1744721","0.0-3.0-1.104","24","3","
    <div class = 'grid-container'>
        <div class='header-text'> Friends </div>
        <div>
            Jasmine
            <img width='150' style='border:2px black solid;' src='stims/img/CFD-AF-256-160-N.jpg'>
        </div>
        <div> &nbsp; + &nbsp; </div>
        <div>
            Lucas
            <img width='150' style='border:2px black solid;' src='stims/img/CFD-WM-214-026-N.jpg'>
        </div>
        <div class='header-text'> &nbsp; </div>
    </div>
    ","null","6","false","2","stims/img/CFD-WM-214-026-N.jpg","Lucas","4","stims/img/CFD-AF-256-160-N.jpg","Jasmine","","",""
"","null","fixation","html-keyboard-response","219","1745227","0.0-3.0-0.105","24","3","<div style = ""font-size:60px;""> + </div>","null","","","","","","","","","","",""
"","null","learning_trial","html-keyboard-response","220","1747735","0.0-3.0-1.105","24","3","
    <div class = 'grid-container'>
        <div class='header-text'> Friends </div>
        <div>
            Evan
            <img width='150' style='border:2px black solid;' src='stims/img/CFD-AM-211-052-N.jpg'>
        </div>
        <div> &nbsp; + &nbsp; </div>
        <div>
            Joshua
            <img width='150' style='border:2px black solid;' src='stims/img/CFD-LM-231-214-N.jpg'>
        </div>
        <div class='header-text'> &nbsp; </div>
    </div>
    ","null","6","true","5","stims/img/CFD-AM-211-052-N.jpg","Evan","7","stims/img/CFD-LM-231-214-N.jpg","Joshua","","",""
"","null","fixation","html-keyboard-response","221","1748240","0.0-3.0-0.106","24","3","<div style = ""font-size:60px;""> + </div>","null","","","","","","","","","","",""
"","null","learning_trial","html-keyboard-response","222","1750747","0.0-3.0-1.106","24","3","
    <div class = 'grid-container'>
        <div class='header-text'> Friends </div>
        <div>
            Dylan
            <img width='150' style='border:2px black solid;' src='stims/img/CFD-LM-216-082-N.jpg'>
        </div>
        <div> &nbsp; + &nbsp; </div>
        <div>
            Jasmine
            <img width='150' style='border:2px black solid;' src='stims/img/CFD-AF-256-160-N.jpg'>
        </div>
        <div class='header-text'> &nbsp; </div>
    </div>
    ","null","6","false","4","stims/img/CFD-AF-256-160-N.jpg","Jasmine","6","stims/img/CFD-LM-216-082-N.jpg","Dylan","","",""
"","null","fixation","html-keyboard-response","223","1751253","0.0-3.0-0.107","24","3","<div style = ""font-size:60px;""> + </div>","null","","","","","","","","","","",""
"","null","learning_trial","html-keyboard-response","224","1753760","0.0-3.0-1.107","24","3","
    <div class = 'grid-container'>
        <div class='header-text'> Friends </div>
        <div>
            Evan
            <img width='150' style='border:2px black solid;' src='stims/img/CFD-AM-211-052-N.jpg'>
        </div>
        <div> &nbsp; + &nbsp; </div>
        <div>
            Jasmine
            <img width='150' style='border:2px black solid;' src='stims/img/CFD-AF-256-160-N.jpg'>
        </div>
        <div class='header-text'> &nbsp; </div>
    </div>
    ","null","6","false","4","stims/img/CFD-AF-256-160-N.jpg","Jasmine","5","stims/img/CFD-AM-211-052-N.jpg","Evan","","",""
"","null","fixation","html-keyboard-response","225","1754266","0.0-3.0-0.108","24","3","<div style = ""font-size:60px;""> + </div>","null","","","","","","","","","","",""
"","null","learning_trial","html-keyboard-response","226","1756773","0.0-3.0-1.108","24","3","
    <div class = 'grid-container'>
        <div class='header-text'> Friends </div>
        <div>
            Joshua
            <img width='150' style='border:2px black solid;' src='stims/img/CFD-LM-231-214-N.jpg'>
        </div>
        <div> &nbsp; + &nbsp; </div>
        <div>
            Dylan
            <img width='150' style='border:2px black solid;' src='stims/img/CFD-LM-216-082-N.jpg'>
        </div>
        <div class='header-text'> &nbsp; </div>
    </div>
    ","null","6","false","6","stims/img/CFD-LM-216-082-N.jpg","Dylan","7","stims/img/CFD-LM-231-214-N.jpg","Joshua","","",""
"","null","fixation","html-keyboard-response","227","1757279","0.0-3.0-0.109","24","3","<div style = ""font-size:60px;""> + </div>","null","","","","","","","","","","",""
"","null","learning_trial","html-keyboard-response","228","1759786","0.0-3.0-1.109","24","3","
    <div class = 'grid-container'>
        <div class='header-text'> Friends </div>
        <div>
            Christopher
            <img width='150' style='border:2px black solid;' src='stims/img/CFD-BM-210-148-N.jpg'>
        </div>
        <div> &nbsp; + &nbsp; </div>
        <div>
            Angelina
            <img width='150' style='border:2px black solid;' src='stims/img/CFD-LF-214-090-N.jpg'>
        </div>
        <div class='header-text'> &nbsp; </div>
    </div>
    ","null","6","false","12","stims/img/CFD-LF-214-090-N.jpg","Angelina","13","stims/img/CFD-BM-210-148-N.jpg","Christopher","","",""
"","null","fixation","html-keyboard-response","229","1760290","0.0-3.0-0.110","24","3","<div style = ""font-size:60px;""> + </div>","null","","","","","","","","","","",""
"","null","learning_trial","html-keyboard-response","230","1762798","0.0-3.0-1.110","24","3","
    <div class = 'grid-container'>
        <div class='header-text'> Friends </div>
        <div>
            Ella
            <img width='150' style='border:2px black solid;' src='stims/img/CFD-WF-213-031-N.jpg'>
        </div>
        <div> &nbsp; + &nbsp; </div>
        <div>
            Lucas
            <img width='150' style='border:2px black solid;' src='stims/img/CFD-WM-214-026-N.jpg'>
        </div>
        <div class='header-text'> &nbsp; </div>
    </div>
    ","null","6","false","2","stims/img/CFD-WM-214-026-N.jpg","Lucas","3","stims/img/CFD-WF-213-031-N.jpg","Ella","","",""
"","null","fixation","html-keyboard-response","231","1763304","0.0-3.0-0.111","24","3","<div style = ""font-size:60px;""> + </div>","null","","","","","","","","","","",""
"","null","learning_trial","html-keyboard-response","232","1765808","0.0-3.0-1.111","24","3","
    <div class = 'grid-container'>
        <div class='header-text'> Friends </div>
        <div>
            Laila
            <img width='150' style='border:2px black solid;' src='stims/img/CFD-BF-210-130-N.jpg'>
        </div>
        <div> &nbsp; + &nbsp; </div>
        <div>
            Angelina
            <img width='150' style='border:2px black solid;' src='stims/img/CFD-LF-214-090-N.jpg'>
        </div>
        <div class='header-text'> &nbsp; </div>
    </div>
    ","null","6","true","10","stims/img/CFD-BF-210-130-N.jpg","Laila","12","stims/img/CFD-LF-214-090-N.jpg","Angelina","","",""
"","null","fixation","html-keyboard-response","233","1766315","0.0-3.0-0.112","24","3","<div style = ""font-size:60px;""> + </div>","null","","","","","","","","","","",""
"","null","learning_trial","html-keyboard-response","234","1768822","0.0-3.0-1.112","24","3","
    <div class = 'grid-container'>
        <div class='header-text'> Friends </div>
        <div>
            Lucas
            <img width='150' style='border:2px black solid;' src='stims/img/CFD-WM-214-026-N.jpg'>
